
Integration time [ms]:   2,000
Averaging Nr. [scans]: 30
Smoothing Nr. [pixels]: 0
Data measured with spectrometer [name]: 0901140U1
Wave   ;Sample   ;Dark     ;Reference;Scope
[nm]   ;[counts] ;[counts] ;[counts] 

 260,00;   Not Available
 261,00;   Not Available
 262,00;   Not Available
 263,00;   Not Available
 264,00;   Not Available
 265,00;   Not Available
 266,00;   Not Available
 267,00;   Not Available
 268,00;   Not Available
 269,00;   Not Available
 270,00;   Not Available
 271,00;   Not Available
 272,00;   Not Available
 273,00;   Not Available
 274,00;   Not Available
 275,00;   Not Available
 276,00;   Not Available
 277,00;   Not Available
 278,00;   Not Available
 279,00;   Not Available
 280,00;   Not Available
 281,00;   Not Available
 282,00;   Not Available
 283,00;   Not Available
 284,00;   Not Available
 285,00;   Not Available
 286,00;   Not Available
 287,00;   Not Available
 288,00;   Not Available
 289,00;   Not Available
 290,00;   Not Available
 291,00;   Not Available
 292,00;   Not Available
 293,00;   Not Available
 294,00;   Not Available
 295,00;   Not Available
 296,00;   Not Available
 297,00;   Not Available
 298,00;   Not Available
 299,00;   Not Available
 300,00;   Not Available
 301,00;   Not Available
 302,00;   Not Available
 303,00;   Not Available
 304,00;   Not Available
 305,00;   Not Available
 306,00;   Not Available
 307,00;   Not Available
 308,00;   Not Available
 309,00;   Not Available
 310,00;   Not Available
 311,00;   Not Available
 312,00;   Not Available
 313,00;   Not Available
 314,00;   Not Available
 315,00;   Not Available
 316,00;   Not Available
 317,00;   Not Available
 318,00;   Not Available
 319,00;   Not Available
 320,00;   Not Available
 321,00;   Not Available
 322,00;   Not Available
 323,00;   Not Available
 324,00;   Not Available
 325,00;   Not Available
 326,00;   Not Available
 327,00;   Not Available
 328,00;   Not Available
 329,00;   Not Available
 330,00;   Not Available
 331,00;   Not Available
 332,00;   Not Available
 333,00;   Not Available
 334,00;   Not Available
 335,00;   Not Available
 336,00;   Not Available
 337,00;   Not Available
 338,00;   Not Available
 339,00;   Not Available
 340,00;   Not Available
 341,00;   Not Available
 342,00;   Not Available
 343,00;   22,061;   -0,042; 5308,653
 344,00;   17,408;    3,248; 5435,737
 345,00;   25,329;   -0,687; 5586,839
 346,00;   24,397;   -1,316; 5899,019
 347,00;    8,065;    0,583; 6169,222
 348,00;   14,455;    4,643; 6334,159
 349,00;   18,360;    1,589; 6593,907
 350,00;   23,240;   -0,161; 6639,549
 351,00;   17,061;   -3,740; 6811,936
 352,00;   18,077;    4,863; 6805,536
 353,00;   13,632;    3,098; 6722,142
 354,00;   26,840;   11,456; 6660,788
 355,00;   18,173;   -0,317; 6859,957
 356,00;   25,924;    3,085; 7013,905
 357,00;   14,064;    1,773; 7062,159
 358,00;   10,954;   -1,850; 7139,153
 359,00;   19,110;    5,362; 7172,313
 360,00;   25,546;   -0,945; 7184,622
 361,00;   23,776;    4,640; 7271,278
 362,00;   15,723;    1,986; 7267,726
 363,00;   31,657;   -1,653; 7353,291
 364,00;   13,949;    3,267; 7347,788
 365,00;   25,748;   -2,526; 7376,368
 366,00;   27,641;    5,423; 7425,625
 367,00;   20,500;    1,077; 7691,767
 368,00;   21,924;   -0,660; 7901,408
 369,00;   14,833;   -2,295; 7832,170
 370,00;   24,799;    0,997; 8026,802
 371,00;   18,634;    0,108; 7804,205
 372,00;   28,462;   -0,688; 7872,014
 373,00;   29,248;    1,758; 7907,641
 374,00;   23,778;    0,283; 7977,145
 375,00;   23,871;    0,361; 7791,377
 376,00;   25,108;    1,476; 7795,045
 377,00;   28,119;    4,076; 7797,232
 378,00;   20,615;    4,427; 8369,540
 379,00;   17,854;    6,374; 8415,530
 380,00;   19,068;    4,474; 8362,086
 381,00;   28,305;    8,202; 8145,759
 382,00;   18,054;    8,451; 8040,339
 383,00;   23,444;    3,121; 7942,856
 384,00;   33,835;    2,617; 7877,278
 385,00;   20,895;    1,733; 7830,965
 386,00;   24,011;    3,665; 8065,170
 387,00;   25,650;    7,203; 8047,448
 388,00;   26,395;    4,292; 8521,671
 389,00;   26,392;    3,476; 8246,824
 390,00;   23,705;   -3,709; 8205,581
 391,00;   29,519;    0,076; 7955,041
 392,00;   37,092;    7,527; 8241,355
 393,00;   32,292;    1,829; 8365,932
 394,00;   35,971;    9,557; 7975,822
 395,00;   44,355;   -2,359; 8086,842
 396,00;   42,909;    5,159; 8008,916
 397,00;   43,943;    7,819; 8328,379
 398,00;   41,365;    0,294; 8563,734
 399,00;   44,435;    6,943; 8852,164
 400,00;   43,335;    5,366; 8319,759
 401,00;   46,719;    3,627; 7747,729
 402,00;   54,893;    1,281; 7571,799
 403,00;   56,279;    6,363; 7412,172
 404,00;   61,395;    5,728; 7669,434
 405,00;   58,208;    1,982; 7609,302
 406,00;   64,137;    0,823; 7620,879
 407,00;   62,034;    6,431; 7442,482
 408,00;   81,899;    2,157; 7481,070
 409,00;   81,691;   -0,802; 7398,022
 410,00;   84,259;    2,440; 7427,271
 411,00;   88,413;    3,476; 7405,718
 412,00;   83,093;    6,473; 7360,099
 413,00;   96,801;    2,681; 7486,115
 414,00;  104,761;    2,528; 7927,028
 415,00;  102,182;    5,374; 7686,086
 416,00;  103,236;    0,564; 7494,637
 417,00;  108,248;    1,319; 7471,791
 418,00;  114,622;    3,676; 7560,669
 419,00;  130,342;    4,244; 7755,964
 420,00;  129,895;    3,001; 8012,610
 421,00;  132,300;    6,532; 8465,100
 422,00;  137,595;    6,996; 9161,408
 423,00;  139,890;   -2,817; 9191,825
 424,00;  146,963;   -0,062; 9271,484
 425,00;  158,312;    5,149; 8852,789
 426,00;  152,199;    2,015; 8801,746
 427,00;  162,139;    2,890; 8997,735
 428,00;  179,965;    2,147; 9554,482
 429,00;  176,008;    2,279; 9685,289
 430,00;  186,917;    6,943;10238,988
 431,00;  195,492;    2,435;10520,281
 432,00;  199,283;    1,956; 9940,647
 433,00;  204,566;    0,383; 9535,601
 434,00;  214,962;    3,284; 9904,623
 435,00;  240,944;    1,111;10198,457
 436,00;  244,107;    3,710;10046,201
 437,00;  252,588;    2,990;10107,762
 438,00;  261,144;   -1,790;10187,177
 439,00;  265,239;    0,801; 9930,316
 440,00;  274,349;    4,995; 9843,439
 441,00;  292,363;    4,683;10147,359
 442,00;  271,932;    1,708; 9880,016
 443,00;  288,634;    4,022; 9609,006
 444,00;  277,636;    4,970; 8842,917
 445,00;  294,746;    3,642; 8717,773
 446,00;  290,398;    0,294; 9108,867
 447,00;  301,288;    3,214; 9446,540
 448,00;  304,099;    1,678;10103,260
 449,00;  311,661;    4,529;10864,071
 450,00;  317,182;    0,285;11428,142
 451,00;  320,351;   -1,116;11859,538
 452,00;  319,650;    1,252;11920,851
 453,00;  346,640;    3,434;12365,451
 454,00;  362,864;   -1,505;12348,034
 455,00;  386,842;    4,028;12907,695
 456,00;  391,340;    6,445;13043,195
 457,00;  377,181;    3,011;13154,216
 458,00;  375,799;    3,227;13466,441
 459,00;  374,283;    1,747;13925,955
 460,00;  356,841;    2,647;13797,224
 461,00;  352,148;    4,310;13717,760
 462,00;  366,798;    2,955;13603,510
 463,00;  364,971;    1,672;13405,965
 464,00;  379,920;    2,324;14202,312
 465,00;  399,370;    6,023;14951,125
 466,00;  395,032;    2,250;15131,470
 467,00;  398,612;   -3,115;14825,442
 468,00;  423,973;    1,957;14679,288
 469,00;  440,350;   -1,137;14474,279
 470,00;  459,984;   -1,581;14051,918
 471,00;  443,357;    1,502;13976,505
 472,00;  486,012;    1,868;14369,674
 473,00;  492,540;   -0,932;14937,848
 474,00;  510,605;    1,334;15444,499
 475,00;  507,539;   -1,157;15589,378
 476,00;  522,771;    6,891;16010,549
 477,00;  534,999;   -2,285;15962,462
 478,00;  542,113;    3,104;16332,794
 479,00;  532,845;    5,322;16686,910
 480,00;  536,937;    0,553;17099,205
 481,00;  557,161;    5,806;17484,386
 482,00;  565,969;    3,372;17809,137
 483,00;  605,573;    2,125;17966,667
 484,00;  575,794;   -3,126;18556,171
 485,00;  614,942;    1,445;22468,907
 486,00;  640,162;    0,811;31549,406
 487,00;  599,253;   -1,395;31339,104
 488,00;  640,245;    6,628;20056,548
 489,00;  636,588;    3,347;18925,110
 490,00;  593,214;    5,383;19158,655
 491,00;  610,122;    1,072;19219,379
 492,00;  607,067;    0,479;19039,717
 493,00;  593,347;    4,369;19073,019
 494,00;  590,667;   -1,705;19310,317
 495,00;  592,783;   -1,691;18904,344
 496,00;  549,887;    5,041;19320,323
 497,00;  536,859;    0,713;19521,951
 498,00;  532,679;    6,657;18975,697
 499,00;  510,775;    0,021;19205,823
 500,00;  496,194;   -0,637;19409,174
 501,00;  500,382;    6,167;19400,656
 502,00;  474,051;    2,731;19825,945
 503,00;  450,318;    3,819;19852,170
 504,00;  458,075;    6,267;19545,973
 505,00;  442,761;    0,363;19039,183
 506,00;  410,094;    3,055;19003,583
 507,00;  428,315;    0,945;18811,889
 508,00;  409,072;   -1,997;18717,782
 509,00;  378,873;   -1,410;18586,254
 510,00;  382,903;    3,725;18561,556
 511,00;  366,904;    2,462;18666,460
 512,00;  339,092;    1,534;18630,675
 513,00;  341,272;    9,685;18387,922
 514,00;  332,263;    6,780;18242,142
 515,00;  320,069;    5,326;17622,089
 516,00;  312,116;    1,225;17554,524
 517,00;  314,330;    1,162;17230,740
 518,00;  298,631;   22,620;17035,085
 519,00;  292,802;    4,323;16742,225
 520,00;  256,755;    3,130;16657,887
 521,00;  270,367;    8,944;16327,533
 522,00;  246,664;    7,491;16240,052
 523,00;  251,222;   -2,718;16176,654
 524,00;  237,414;   -4,601;16443,395
 525,00;  226,631;    4,013;16357,991
 526,00;  205,710;    8,007;16480,530
 527,00;  189,545;    6,683;16252,598
 528,00;  191,838;    4,062;16653,785
 529,00;  187,533;    4,644;16864,332
 530,00;  159,966;   -0,177;17253,771
 531,00;  157,781;   -0,185;17030,089
 532,00;  153,645;    1,673;17490,817
 533,00;  141,180;    0,578;18275,787
 534,00;  134,443;    6,339;19191,745
 535,00;  129,404;   -0,042;19583,412
 536,00;  129,686;   -5,456;19801,991
 537,00;  109,336;    3,493;19468,151
 538,00;  104,819;    3,718;19791,057
 539,00;  107,736;    7,833;19953,273
 540,00;  100,273;    2,284;19774,906
 541,00;  105,663;    4,635;19327,634
 542,00;   90,433;    0,439;19376,597
 543,00;   85,439;    1,270;19258,235
 544,00;   75,423;   -0,154;19421,154
 545,00;   73,191;    6,065;19569,175
 546,00;   80,645;   -1,895;19720,234
 547,00;   78,641;    0,648;19926,118
 548,00;   65,328;    0,086;20885,498
 549,00;   72,774;   -0,038;21048,594
 550,00;   76,736;    4,478;20441,229
 551,00;   77,955;    0,368;20291,522
 552,00;   66,755;   -0,605;20750,020
 553,00;   52,134;    6,332;21136,333
 554,00;   57,530;    3,933;21175,515
 555,00;   60,139;    2,375;21441,113
 556,00;   53,685;    0,634;22267,749
 557,00;   58,695;    1,533;22532,690
 558,00;   64,160;    4,612;23078,812
 559,00;   51,121;    3,711;23491,301
 560,00;   42,980;   -1,764;24464,614
 561,00;   46,324;    6,008;25434,026
 562,00;   43,428;    2,368;25900,670
 563,00;   44,805;   -1,849;26285,369
 564,00;   36,485;   11,938;26912,675
 565,00;   45,358;    5,430;27477,788
 566,00;   43,418;    2,382;27874,917
 567,00;   49,009;    3,512;28666,529
 568,00;   36,954;    2,958;29770,636
 569,00;   37,417;   -0,522;31102,097
 570,00;   31,992;    0,188;32978,253
 571,00;   34,436;    2,910;34369,629
 572,00;   39,740;    3,662;35240,696
 573,00;   38,266;   -1,779;35774,339
 574,00;   37,461;    2,880;36874,327
 575,00;   31,491;    0,981;37501,588
 576,00;   27,097;    7,072;37331,900
 577,00;   25,268;    6,284;37778,065
 578,00;   22,840;   -2,775;38695,355
 579,00;   20,988;    6,153;38248,724
 580,00;   19,292;    4,260;37071,396
 581,00;   23,035;    5,770;38578,649
 582,00;   26,629;    2,590;39207,020
 583,00;   24,199;    5,177;37470,977
 584,00;   27,078;    5,213;35636,726
 585,00;   30,239;    2,963;36323,937
 586,00;   32,515;    0,225;36611,662
 587,00;   28,104;    2,959;36328,456
 588,00;   29,965;    7,420;36086,156
 589,00;   28,559;    5,812;35896,728
 590,00;   29,599;    5,054;35650,694
 591,00;   32,891;    8,888;35815,884
 592,00;   34,746;    6,022;36089,818
 593,00;   27,236;   -0,248;36859,857
 594,00;   21,994;   -1,801;36792,130
 595,00;   25,692;    3,127;36973,920
 596,00;   28,891;    0,218;36879,888
 597,00;   23,691;    6,610;37328,150
 598,00;   30,698;    0,515;37101,256
 599,00;   21,306;    1,860;37353,732
 600,00;   28,219;    5,298;37386,589
 601,00;   23,224;    2,013;37851,726
 602,00;   29,666;    0,092;36887,099
 603,00;   22,629;    0,589;37382,548
 604,00;   33,543;    3,939;36696,808
 605,00;   25,932;    4,699;36721,164
 606,00;   22,272;    1,771;36169,331
 607,00;   19,631;    4,815;36331,526
 608,00;   22,193;    7,694;35668,702
 609,00;   21,657;   -1,222;35820,190
 610,00;   22,193;    4,886;35288,211
 611,00;   25,708;    4,182;35331,259
 612,00;   35,964;   -0,146;34836,154
 613,00;   31,041;   -2,113;34671,862
 614,00;   31,932;    0,070;34298,335
 615,00;   21,385;    0,562;34331,296
 616,00;   32,094;    2,960;34028,695
 617,00;   27,144;    5,008;34144,864
 618,00;   29,458;    2,960;34200,385
 619,00;   15,159;    1,023;34374,462
 620,00;   31,219;    2,619;34782,222
 621,00;   17,893;    6,023;35152,758
 622,00;   17,750;    0,418;35441,372
 623,00;   29,585;    5,531;36021,990
 624,00;   27,974;    0,388;36494,263
 625,00;   25,492;    6,006;36262,749
 626,00;   17,378;    1,077;36732,193
 627,00;   28,604;    5,224;36698,499
 628,00;   29,673;    0,370;37373,709
 629,00;   20,890;    9,106;37579,336
 630,00;   25,728;   -0,291;38028,031
 631,00;   18,729;    3,879;38202,109
 632,00;   13,979;    5,007;38990,489
 633,00;   23,098;    0,551;39293,266
 634,00;   12,088;    0,404;40032,573
 635,00;   22,212;    3,114;40600,067
 636,00;   19,433;    5,063;41558,948
 637,00;   20,890;    2,150;41885,449
 638,00;   28,192;    2,875;42892,711
 639,00;   20,822;    2,905;43655,095
 640,00;   24,953;    3,107;44176,099
 641,00;   24,346;    4,516;44978,812
 642,00;   31,629;    6,812;45765,159
 643,00;   24,889;    7,026;46324,008
 644,00;   22,541;    5,651;46714,845
 645,00;   28,490;    0,864;47229,471
 646,00;   28,035;    0,634;47893,808
 647,00;   30,225;    2,331;48047,108
 648,00;   37,230;    3,025;48312,216
 649,00;   35,409;    4,851;48508,625
 650,00;   36,700;    0,434;48522,038
 651,00;   40,000;    3,312;49018,126
 652,00;   35,191;    2,491;48531,035
 653,00;   33,802;    0,635;48870,640
 654,00;   42,739;    0,401;48778,588
 655,00;   44,498;   -0,224;49845,531
 656,00;   40,068;   -0,043;55463,470
 657,00;   38,114;    0,637;56631,300
 658,00;   38,327;    8,040;49246,714
 659,00;   39,952;    2,697;49158,694
 660,00;   29,111;    2,498;48768,216
 661,00;   35,264;    4,144;48814,878
 662,00;   31,223;    5,911;48876,194
 663,00;   38,220;    3,329;48702,559
 664,00;   37,862;    1,404;48892,247
 665,00;   35,843;    2,870;49183,260
 666,00;   36,737;    1,339;49689,752
 667,00;   37,920;    2,657;49188,088
 668,00;   21,573;    2,678;49895,399
 669,00;   30,868;    3,936;49712,233
 670,00;   29,343;    2,760;50304,498
 671,00;   33,100;    0,201;50279,333
 672,00;   28,636;    6,155;50457,989
 673,00;   39,911;    6,194;50480,294
 674,00;   35,300;    6,817;51278,567
 675,00;   32,233;    4,144;50519,404
 676,00;   28,394;    4,146;51341,541
 677,00;   31,826;    5,625;50461,849
 678,00;   25,650;    1,109;50993,719
 679,00;   30,160;    4,677;50473,464
 680,00;   30,956;    4,174;50803,425
 681,00;   36,470;    0,235;49968,370
 682,00;   32,286;    0,662;50400,417
 683,00;   39,789;    2,125;49930,562
 684,00;   41,463;    7,792;49692,460
 685,00;   46,485;    3,155;49829,487
 686,00;   57,662;    5,728;49799,843
 687,00;   52,991;    2,544;50213,077
 688,00;   69,158;    5,236;49460,159
 689,00;   58,560;    3,807;50051,820
 690,00;   75,001;   -2,713;49086,613
 691,00;   86,620;    5,767;50208,881
 692,00;  100,537;    8,461;49553,000
 693,00;  111,691;   -4,389;49815,210
 694,00;  128,438;   -4,831;49597,372
 695,00;  136,976;    1,650;49860,159
 696,00;  149,372;    0,391;49573,614
 697,00;  172,367;    3,312;50198,054
 698,00;  182,089;    5,182;49775,512
 699,00;  225,173;    1,389;49993,374
 700,00;  237,306;    5,814;50249,553
 701,00;  274,389;   -6,151;49671,834
 702,00;  309,156;   24,422;50178,262
 703,00;  358,893;    1,372;49507,536
 704,00;  382,980;    2,128;49640,561
 705,00;  409,611;    2,489;49545,116
 706,00;  466,732;    6,002;49614,926
 707,00;  491,706;    5,496;49508,597
 708,00;  538,866;    0,281;49185,260
 709,00;  590,201;    0,928;48762,067
 710,00;  627,900;    0,257;48784,377
 711,00;  741,347;    2,116;48442,609
 712,00;  763,397;    2,398;48379,045
 713,00;  835,122;    3,319;48124,926
 714,00;  868,542;    3,323;47788,560
 715,00;  917,553;    2,670;47352,499
 716,00; 1029,773;    1,001;47327,557
 717,00; 1124,353;   -0,767;47075,032
 718,00; 1168,994;    4,123;46231,429
 719,00; 1182,276;    4,611;46379,970
 720,00; 1266,349;    5,204;45934,552
 721,00; 1312,094;    5,484;46184,420
 722,00; 1349,600;   -1,745;45333,735
 723,00; 1478,636;   -4,147;45312,754
 724,00; 1571,429;    1,669;45384,225
 725,00; 1617,131;    3,052;45169,462
 726,00; 1644,838;   -1,233;45215,307
 727,00; 1747,741;    4,459;45402,216
 728,00; 1732,544;    3,743;45198,493
 729,00; 1824,478;   -0,075;45036,927
 730,00; 1903,648;    2,884;45281,836
 731,00; 1905,114;    2,623;45243,883
 732,00; 2074,422;    9,943;45542,623
 733,00; 2152,192;   -1,006;45407,017
 734,00; 2125,958;   -3,252;45594,318
 735,00; 2220,069;   -1,722;45662,838
 736,00; 2557,466;    6,782;45648,534
 737,00; 2402,651;    7,536;45893,661
 738,00; 2526,184;    8,522;45643,223
 739,00; 2704,809;    7,767;45171,118
 740,00; 2650,053;    2,215;45144,134
 741,00; 2602,769;    3,690;45207,829
 742,00; 2949,919;    4,659;45004,046
 743,00; 2943,216;    5,013;44853,548
 744,00; 2940,981;    1,821;44322,740
 745,00; 2969,583;    7,429;44563,896
 746,00; 2949,052;    1,159;44189,251
 747,00; 3140,479;    8,505;43951,240
 748,00; 3177,721;    7,888;43273,005
 749,00; 3289,911;    2,018;43377,164
 750,00; 3352,717;    3,416;43159,180
 751,00; 3298,838;    4,206;42515,226
 752,00; 3421,333;    5,343;42079,535
 753,00; 3254,555;    5,282;41340,851
 754,00; 3184,809;    2,805;41319,095
 755,00; 3279,302;    3,716;40276,796
 756,00; 3415,649;    6,277;40243,016
 757,00; 3127,997;    3,754;39576,232
 758,00; 3287,369;    7,402;39704,427
 759,00; 3263,697;    7,962;39000,068
 760,00; 3511,663;    0,977;38547,462
 761,00; 3379,767;    4,183;38153,991
 762,00; 3466,826;    3,050;37786,002
 763,00; 3377,008;    5,642;37426,534
 764,00; 3502,343;    1,250;37181,135
 765,00; 3520,089;   -0,754;37171,447
 766,00; 3491,977;    5,452;36472,322
 767,00; 3552,276;    4,444;36253,979
 768,00; 3528,270;    1,429;36376,863
 769,00; 3565,499;   -1,182;36175,867
 770,00; 3444,579;   -1,209;35848,783
 771,00; 3767,961;   10,193;36034,098
 772,00; 3711,067;    1,801;35733,893
 773,00; 3833,816;    6,087;35890,631
 774,00; 3818,607;    5,606;35598,640
 775,00; 3590,388;    1,026;35517,664
 776,00; 3711,405;    6,113;35840,170
 777,00; 3491,366;    3,884;35458,882
 778,00; 3904,394;    1,515;35524,560
 779,00; 3989,518;    0,783;35476,436
 780,00; 3927,899;    4,404;35814,053
 781,00; 3885,212;    3,630;35835,393
 782,00; 3975,901;   -0,328;36141,052
 783,00; 3708,126;    0,491;36275,895
 784,00; 4158,081;    7,288;36455,008
 785,00; 3919,216;    1,558;36454,477
 786,00; 3895,486;    4,119;36609,201
 787,00; 4152,490;    3,715;36901,355
 788,00; 4366,412;    4,785;36724,684
 789,00; 4042,708;    1,940;36884,133
 790,00; 4040,311;    2,064;36639,539
 791,00; 4159,795;    5,108;37085,536
 792,00; 4301,864;    6,224;36549,884
 793,00; 4185,347;    6,098;36684,174
 794,00; 4391,468;    5,712;36363,303
 795,00; 4334,117;   -0,945;36473,159
 796,00; 4507,181;    0,387;36404,456
 797,00; 4356,735;    2,339;36042,595
 798,00; 4386,915;   -3,596;35780,798
 799,00; 4703,067;    4,808;35420,531
 800,00; 4356,490;    4,171;35284,582
 801,00; 4205,129;    5,810;34440,825
 802,00; 4186,040;   -2,867;34443,663
 803,00; 4313,712;    2,139;34307,753
 804,00; 4101,402;    2,001;34113,270
 805,00; 4043,302;    2,988;33636,256
 806,00; 4012,641;   -0,298;33060,784
 807,00; 3973,291;   -0,155;33033,672
 808,00; 4101,358;    4,308;32711,975
 809,00; 3992,863;    8,518;32425,260
 810,00; 4034,179;    3,259;32035,332
 811,00; 3970,307;    1,769;32125,824
 812,00; 4004,201;    1,863;31797,090
 813,00; 3981,959;    1,186;31540,208
 814,00; 4069,869;    5,133;31671,525
 815,00; 4077,738;    3,829;31296,928
 816,00; 3861,921;    3,106;31108,752
 817,00; 3887,630;    2,016;30605,363
 818,00; 3932,821;    4,338;30997,159
 819,00; 3885,267;    3,089;30405,419
 820,00; 3955,428;    7,159;30148,499
 821,00; 3967,883;    2,660;30164,743
 822,00; 3730,495;    0,408;29768,480
 823,00; 3726,162;    6,590;29524,454
 824,00; 3752,184;   -2,013;29316,800
 825,00; 3744,369;    7,821;29135,353
 826,00; 3805,201;    4,077;28735,114
 827,00; 3690,663;    6,341;28999,641
 828,00; 3666,018;    3,056;28742,113
 829,00; 3697,955;    0,872;28675,432
 830,00; 3746,604;    2,746;28333,158
 831,00; 3578,562;    2,474;28399,951
 832,00; 3692,958;    0,378;28376,515
 833,00; 3665,091;    8,963;28079,363
 834,00; 3631,578;    0,427;28282,931
 835,00; 3722,608;    3,908;28028,234
 836,00; 3572,182;    0,164;28263,872
 837,00; 3666,971;    4,288;27715,610
 838,00; 3521,931;    5,189;27993,888
 839,00; 3630,173;    2,788;27779,555
 840,00; 3685,182;    5,828;27701,236
 841,00; 3669,753;    1,944;27736,924
 842,00; 3784,244;    1,551;27678,304
 843,00; 3767,008;    2,396;27753,145
 844,00; 3481,184;    2,294;27398,003
 845,00; 3481,053;    2,821;27621,076
 846,00; 3495,557;    3,304;27366,872
 847,00; 3569,087;    1,994;27096,838
 848,00; 3675,494;    5,303;27264,237
 849,00; 3646,192;    3,693;26825,401
 850,00; 3489,464;    3,226;26883,147
 851,00; 3563,167;   -0,704;26469,412
 852,00; 3600,295;    0,601;26592,544
 853,00; 3378,874;    4,262;26031,020
 854,00; 3620,572;   -0,040;26191,045
 855,00; 3339,957;    2,968;25751,538
 856,00; 3394,613;    3,760;25443,997
 857,00; 3321,256;    1,498;25275,101
 858,00; 3398,825;    1,043;24925,711
 859,00; 3393,214;   -1,107;24959,569
 860,00; 3149,030;    9,451;24400,622
 861,00; 3275,863;    5,719;24441,330
 862,00; 3067,109;    0,653;23886,421
 863,00; 3077,831;    2,847;23555,331
 864,00; 3117,293;   -0,398;23319,195
 865,00; 2890,162;    3,187;22848,051
 866,00; 2943,956;    4,585;22877,885
 867,00; 2854,314;    0,949;22519,785
 868,00; 3025,226;   -4,376;22195,715
 869,00; 2992,203;    0,732;21534,061
 870,00; 2682,395;   -2,655;21645,564
 871,00; 2740,607;    5,622;21223,098
 872,00; 2808,502;    3,223;20818,920
 873,00; 2876,942;    4,779;20710,818
 874,00; 2786,060;   -0,088;20160,841
 875,00; 2624,182;    3,700;20174,218
 876,00; 2618,335;    1,890;19757,687
 877,00; 2609,985;    4,817;19629,732
 878,00; 2653,195;    9,605;19354,176
 879,00; 2600,455;    2,998;19113,723
 880,00; 2581,713;   -1,484;18811,927
 881,00; 2451,720;   56,385;18802,218
 882,00; 2543,596;   -2,872;18731,867
 883,00; 2381,994;    0,959;18789,016
 884,00; 2360,943;    9,259;18731,407
 885,00; 2424,094;    5,312;18705,487
 886,00; 2402,044;    2,379;18851,221
 887,00; 2397,435;   -0,006;19028,694
 888,00; 2329,397;    6,616;19049,508
 889,00; 2528,157;   -2,783;19456,452
 890,00; 2617,253;    2,266;19130,202
 891,00; 2618,748;    4,306;19317,597
 892,00; 2456,705;    7,445;19339,873
 893,00; 2356,122;    2,059;19376,474
 894,00; 2632,833;    7,355;19579,345
 895,00; 2545,783;    3,550;19578,151
 896,00; 2475,568;    0,691;19794,546
 897,00; 2571,708;    1,859;19521,503
 898,00; 2609,304;    0,633;19497,863
 899,00; 2541,169;    1,597;19606,431
 900,00; 2461,632;    4,871;19487,794
 901,00; 2531,018;    0,429;19487,021
 902,00; 2454,653;    1,193;19482,143
 903,00; 2551,329;    5,184;19496,932
 904,00; 2504,727;    4,196;19361,232
 905,00; 2417,808;    3,040;19177,774
 906,00; 2399,502;    2,088;19183,469
 907,00; 2389,264;    0,821;18880,744
 908,00; 2518,107;    2,884;18753,880
 909,00; 2430,371;    3,956;18443,324
 910,00; 2308,766;    4,127;18496,056
 911,00; 2264,497;    0,490;18159,364
 912,00; 2232,792;    3,369;18072,057
 913,00; 2341,569;   -1,364;17948,099
 914,00; 2437,111;    3,961;17512,267
 915,00; 2262,279;    0,781;17686,300
 916,00; 2307,684;    1,643;17283,177
 917,00; 2441,731;    4,271;17033,662
 918,00; 2310,866;    0,666;16796,326
 919,00; 2085,185;    2,611;16545,951
 920,00; 2328,822;    5,666;16356,050
 921,00; 2194,731;    5,856;16109,987
 922,00; 2136,358;    8,668;15895,350
 923,00; 2233,131;    2,391;15548,135
 924,00; 2308,439;    3,682;15312,339
 925,00; 2168,768;    3,474;14994,079
 926,00; 2061,959;    3,483;14609,696
 927,00; 2101,462;    4,173;14447,626
 928,00; 1953,648;    4,918;13910,609
 929,00; 1978,311;    3,297;13868,985
 930,00; 1933,549;    5,804;13383,963
 931,00; 1909,755;    1,265;13092,079
 932,00; 1927,479;   -2,047;12825,786
 933,00; 1738,453;    0,686;12357,902
 934,00; 1969,728;    3,707;12086,283
 935,00; 1933,287;   -0,258;11287,042
 936,00; 1836,593;    0,000;10652,333
 937,00; 1801,630;    0,621; 9968,240
 938,00; 1818,842;    3,722; 9160,350
 939,00; 1771,035;   -1,002; 8456,071
 940,00; 1944,662;    6,402; 7698,365
 941,00; 1546,254;    1,931; 7372,742
 942,00; 1626,448;    4,238; 7012,068
 943,00; 1665,125;    3,338; 6750,658
 944,00; 1612,342;    6,158; 6704,312
 945,00; 1601,502;    3,383; 6645,972
 946,00; 1513,042;    1,673; 6750,353
 947,00; 1452,639;    2,045; 6684,124
 948,00; 1506,932;    3,077; 6859,087
 949,00; 1477,297;   -0,724; 6905,299
 950,00; 1372,792;    4,303; 6970,891
 951,00; 1341,041;    3,734; 7242,058
 952,00; 1278,940;    1,565; 7155,168
 953,00; 1351,310;    1,470; 7528,332
 954,00; 1363,734;    3,194; 7534,413
 955,00; 1362,378;    4,253; 7624,742
 956,00; 1338,503;   -3,211; 7670,394
 957,00; 1347,583;    6,497; 7760,754
 958,00; 1277,880;    2,368; 7982,426
 959,00; 1205,934;   -0,842; 7792,457
 960,00; 1199,601;    1,568; 7892,791
 961,00; 1290,387;    3,466; 7960,323
 962,00; 1167,548;    3,733; 8009,871
 963,00; 1202,588;   -1,271; 8056,483
 964,00; 1159,918;    2,504; 7940,252
 965,00; 1143,721;    0,979; 8034,092
 966,00; 1147,142;    5,138; 7920,691
 967,00; 1034,041;    4,504; 7920,096
 968,00; 1141,921;    1,336; 7911,080
 969,00; 1160,327;    3,643; 7810,097
 970,00; 1085,562;    4,112; 7812,516
 971,00; 1040,324;    0,975; 7822,167
 972,00; 1109,244;    2,244; 7703,449
 973,00; 1071,562;    3,829; 7741,144
 974,00; 1036,306;    3,528; 7606,739
 975,00; 1033,823;    9,840; 7616,591
 976,00;  973,585;    3,540; 7491,415
 977,00; 1036,780;    1,158; 7433,090
 978,00;  993,694;    3,851; 7390,934
 979,00;  906,933;    5,284; 7234,839
 980,00; 1016,464;    3,377; 7221,538
 981,00;  899,020;    4,103; 7101,498
 982,00;  890,624;    5,376; 7030,563
 983,00;  899,673;    0,185; 6964,459
 984,00;  910,576;    1,903; 6791,681
 985,00;  958,800;   -0,735; 6884,786
 986,00;  821,713;    3,984; 6535,673
 987,00;  908,942;    4,619; 6531,601
 988,00;  881,179;    7,786; 6458,635
 989,00;  838,514;    3,408; 6330,281
 990,00;  835,021;    7,383; 6200,638
 991,00;  810,701;    3,803; 6044,263
 992,00;  814,342;    4,066; 5979,043
 993,00;  754,944;    2,968; 5879,213
 994,00;  722,949;    2,697; 5837,352
 995,00;  777,693;    4,746; 5672,640
 996,00;  682,133;    4,696; 5479,321
 997,00;  683,579;    4,116; 5421,606
 998,00;  685,755;    2,840; 5304,811
 999,00;  644,956;   -2,846; 5076,878
1000,00;  643,063;   -0,401; 5073,507
1001,00;  674,844;    2,413; 4934,566
1002,00;  613,058;    2,721; 4771,740
1003,00;  631,657;    3,193; 4659,475
1004,00;  602,350;    3,318; 4567,170
1005,00;  533,288;    2,971; 4448,672
1006,00;  545,326;    6,215; 4290,081
1007,00;  579,691;    3,138; 4197,557
1008,00;  557,951;    2,955; 4092,298
1009,00;  505,606;    5,693; 3950,825
1010,00;  502,096;    3,239; 3976,646
1011,00;  503,991;    4,341; 3852,594
1012,00;  512,041;    4,219; 3822,411
1013,00;  503,755;    3,989; 3796,641
1014,00;  513,407;    1,826; 3774,270
1015,00;  488,893;    5,844; 3813,325
1016,00;  553,180;    6,027; 3750,420
1017,00;  509,451;    2,137; 3730,661
1018,00;  555,166;    0,792; 3654,573
1019,00;  503,609;    0,720; 3574,519
1020,00;  470,953;    6,298; 3499,290
1021,00;  434,478;    7,873; 3310,743
1022,00;  476,490;    4,791; 3253,565
1023,00;  489,108;    2,559; 3145,936
1024,00;  450,764;    1,850; 3073,108
1025,00;  427,457;    0,314; 2982,295
1026,00;  391,731;    0,408; 2842,767
1027,00;  402,751;    3,243; 2770,938
1028,00;  373,094;    3,014; 2630,616
1029,00;  352,138;    4,191; 2552,565
1030,00;  320,242;    3,906; 2458,928
1031,00;  317,947;    2,348; 2376,469
1032,00;  334,002;   -0,189; 2339,266
1033,00;  297,478;    1,268; 2230,116
1034,00;  279,509;    9,510; 2165,551
1035,00;  293,241;    1,348; 2093,223
1036,00;  309,978;    3,156; 2021,790
1037,00;  271,764;    1,820; 1948,954
1038,00;  244,779;    3,195; 1904,856
1039,00;  282,355;    0,630; 1843,503
1040,00;  247,253;    0,761; 1762,364
1041,00;  229,795;    2,140; 1731,450
1042,00;  236,257;    4,696; 1670,515
1043,00;  218,709;    3,250; 1609,635
1044,00;  220,506;    6,727; 1568,765
1045,00;  221,149;    5,127; 1523,020
1046,00;  201,895;    6,818; 1478,453
1047,00;  197,383;    1,683; 1429,356
1048,00;  203,188;    5,404; 1394,443
1049,00;  211,902;    4,401; 1342,936
1050,00;  167,862;    2,565; 1315,683
1051,00;  172,305;    2,439; 1277,001
1052,00;  169,414;    4,119; 1231,814
1053,00;  157,764;    5,556; 1222,191
1054,00;  183,373;    4,484; 1197,243
1055,00;  164,754;   -7,048; 1156,731
1056,00;  145,553;   23,212; 1136,129
1057,00;  142,323;    1,466; 1075,188
1058,00;  148,624;    1,519; 1064,890
1059,00;  158,190;   -1,981; 1025,328
1060,00;  139,281;    4,271;  991,931
1061,00;  125,292;    4,827;  969,708
1062,00;  146,285;    5,977;  948,920
1063,00;  124,353;    5,065;  912,247
1064,00;  125,705;    6,614;  896,884
1065,00;  117,525;    2,581;  859,071
1066,00;  110,117;    3,721;  850,201
1067,00;  111,350;    1,855;  833,671
1068,00;  120,640;    4,291;  803,982
1069,00;  107,640;    0,971;  800,529
1070,00;  106,016;   -6,648;  781,254
1071,00;  104,407;    0,465;  784,165
1072,00;  107,032;    1,958;  755,231
1073,00;  103,934;   -1,788;  743,175
1074,00;  100,812;    9,582;  722,567
1075,00;  106,608;    4,458;  707,139
1076,00;   90,532;    5,820;  694,732
1077,00;   92,112;   -1,830;  672,129
1078,00;   95,390;    7,273;  667,702
1079,00;   87,725;    9,890;  658,769
1080,00;   93,189;    0,934;  642,278
1081,00;   89,619;    3,234;  627,163
1082,00;   76,706;    5,023;  601,046
1083,00;   78,601;    1,785;  571,290
1084,00;   88,581;    0,679;  605,954
1085,00;   79,465;    3,167;  585,327
1086,00;   85,290;    2,699;  555,308
1087,00;   75,152;    3,714;  557,223
1088,00;   78,275;    5,041;  527,679
1089,00;   78,409;    1,571;  504,374
1090,00;   69,968;    1,848;  495,711
1091,00;   78,901;   -2,199;  496,580
1092,00;   78,499;    8,707;  484,457
1093,00;   72,229;    4,808;  462,186
1094,00;   76,747;    2,264;  452,215
1095,00;   69,153;    3,360;  435,345
1096,00;   69,091;    3,219;  424,386
1097,00;   62,379;    3,403;  414,662
1098,00;   62,947;    0,315;  403,777
1099,00;   Not Available
1100,00;   Not Available

