
Integration time [ms]:   2,000
Averaging Nr. [scans]: 30
Smoothing Nr. [pixels]: 0
Data measured with spectrometer [name]: 0901140U1
Wave   ;Sample   ;Dark     ;Reference;Scope
[nm]   ;[counts] ;[counts] ;[counts] 

 260,00;   Not Available
 261,00;   Not Available
 262,00;   Not Available
 263,00;   Not Available
 264,00;   Not Available
 265,00;   Not Available
 266,00;   Not Available
 267,00;   Not Available
 268,00;   Not Available
 269,00;   Not Available
 270,00;   Not Available
 271,00;   Not Available
 272,00;   Not Available
 273,00;   Not Available
 274,00;   Not Available
 275,00;   Not Available
 276,00;   Not Available
 277,00;   Not Available
 278,00;   Not Available
 279,00;   Not Available
 280,00;   Not Available
 281,00;   Not Available
 282,00;   Not Available
 283,00;   Not Available
 284,00;   Not Available
 285,00;   Not Available
 286,00;   Not Available
 287,00;   Not Available
 288,00;   Not Available
 289,00;   Not Available
 290,00;   Not Available
 291,00;   Not Available
 292,00;   Not Available
 293,00;   Not Available
 294,00;   Not Available
 295,00;   Not Available
 296,00;   Not Available
 297,00;   Not Available
 298,00;   Not Available
 299,00;   Not Available
 300,00;   Not Available
 301,00;   Not Available
 302,00;   Not Available
 303,00;   Not Available
 304,00;   Not Available
 305,00;   Not Available
 306,00;   Not Available
 307,00;   Not Available
 308,00;   Not Available
 309,00;   Not Available
 310,00;   Not Available
 311,00;   Not Available
 312,00;   Not Available
 313,00;   Not Available
 314,00;   Not Available
 315,00;   Not Available
 316,00;   Not Available
 317,00;   Not Available
 318,00;   Not Available
 319,00;   Not Available
 320,00;   Not Available
 321,00;   Not Available
 322,00;   Not Available
 323,00;   Not Available
 324,00;   Not Available
 325,00;   Not Available
 326,00;   Not Available
 327,00;   Not Available
 328,00;   Not Available
 329,00;   Not Available
 330,00;   Not Available
 331,00;   Not Available
 332,00;   Not Available
 333,00;   Not Available
 334,00;   Not Available
 335,00;   Not Available
 336,00;   Not Available
 337,00;   Not Available
 338,00;   Not Available
 339,00;   Not Available
 340,00;   Not Available
 341,00;   Not Available
 342,00;   Not Available
 343,00;   18,013;   -0,042; 5308,653
 344,00;   -2,543;    3,248; 5435,737
 345,00;   20,038;   -0,687; 5586,839
 346,00;   11,269;   -1,316; 5899,019
 347,00;    9,992;    0,583; 6169,222
 348,00;   14,244;    4,643; 6334,159
 349,00;   10,992;    1,589; 6593,907
 350,00;   10,163;   -0,161; 6639,549
 351,00;   14,209;   -3,740; 6811,936
 352,00;   13,576;    4,863; 6805,536
 353,00;    9,060;    3,098; 6722,142
 354,00;    6,862;   11,456; 6660,788
 355,00;    5,799;   -0,317; 6859,957
 356,00;   13,461;    3,085; 7013,905
 357,00;   11,741;    1,773; 7062,159
 358,00;   14,074;   -1,850; 7139,153
 359,00;   19,290;    5,362; 7172,313
 360,00;   21,230;   -0,945; 7184,622
 361,00;    6,451;    4,640; 7271,278
 362,00;    7,827;    1,986; 7267,726
 363,00;   14,112;   -1,653; 7353,291
 364,00;   15,424;    3,267; 7347,788
 365,00;   19,827;   -2,526; 7376,368
 366,00;    9,259;    5,423; 7425,625
 367,00;   13,479;    1,077; 7691,767
 368,00;   13,599;   -0,660; 7901,408
 369,00;   -1,603;   -2,295; 7832,170
 370,00;   17,685;    0,997; 8026,802
 371,00;   16,061;    0,108; 7804,205
 372,00;    9,862;   -0,688; 7872,014
 373,00;   16,568;    1,758; 7907,641
 374,00;   18,957;    0,283; 7977,145
 375,00;   15,610;    0,361; 7791,377
 376,00;   22,079;    1,476; 7795,045
 377,00;   15,743;    4,076; 7797,232
 378,00;    3,973;    4,427; 8369,540
 379,00;   15,283;    6,374; 8415,530
 380,00;   12,781;    4,474; 8362,086
 381,00;   18,939;    8,202; 8145,759
 382,00;    8,894;    8,451; 8040,339
 383,00;   10,623;    3,121; 7942,856
 384,00;   25,442;    2,617; 7877,278
 385,00;   11,221;    1,733; 7830,965
 386,00;   20,496;    3,665; 8065,170
 387,00;    9,012;    7,203; 8047,448
 388,00;   16,594;    4,292; 8521,671
 389,00;   19,138;    3,476; 8246,824
 390,00;    8,912;   -3,709; 8205,581
 391,00;   14,949;    0,076; 7955,041
 392,00;   12,390;    7,527; 8241,355
 393,00;    9,943;    1,829; 8365,932
 394,00;   17,888;    9,557; 7975,822
 395,00;   21,426;   -2,359; 8086,842
 396,00;   13,369;    5,159; 8008,916
 397,00;   12,594;    7,819; 8328,379
 398,00;   13,472;    0,294; 8563,734
 399,00;   10,670;    6,943; 8852,164
 400,00;   17,276;    5,366; 8319,759
 401,00;   14,617;    3,627; 7747,729
 402,00;   10,296;    1,281; 7571,799
 403,00;    4,747;    6,363; 7412,172
 404,00;   17,715;    5,728; 7669,434
 405,00;   12,633;    1,982; 7609,302
 406,00;   20,257;    0,823; 7620,879
 407,00;   10,726;    6,431; 7442,482
 408,00;   10,177;    2,157; 7481,070
 409,00;   19,750;   -0,802; 7398,022
 410,00;   10,097;    2,440; 7427,271
 411,00;   21,527;    3,476; 7405,718
 412,00;   20,235;    6,473; 7360,099
 413,00;   12,493;    2,681; 7486,115
 414,00;   -0,596;    2,528; 7927,028
 415,00;    4,848;    5,374; 7686,086
 416,00;   17,496;    0,564; 7494,637
 417,00;   19,208;    1,319; 7471,791
 418,00;    5,753;    3,676; 7560,669
 419,00;   18,652;    4,244; 7755,964
 420,00;   25,210;    3,001; 8012,610
 421,00;   16,174;    6,532; 8465,100
 422,00;    6,619;    6,996; 9161,408
 423,00;    9,783;   -2,817; 9191,825
 424,00;    9,313;   -0,062; 9271,484
 425,00;   19,984;    5,149; 8852,789
 426,00;   18,351;    2,015; 8801,746
 427,00;   13,738;    2,890; 8997,735
 428,00;   14,867;    2,147; 9554,482
 429,00;   15,893;    2,279; 9685,289
 430,00;   13,864;    6,943;10238,988
 431,00;    9,910;    2,435;10520,281
 432,00;   15,672;    1,956; 9940,647
 433,00;    7,111;    0,383; 9535,601
 434,00;   16,274;    3,284; 9904,623
 435,00;   16,487;    1,111;10198,457
 436,00;    9,736;    3,710;10046,201
 437,00;   16,364;    2,990;10107,762
 438,00;   16,003;   -1,790;10187,177
 439,00;    8,633;    0,801; 9930,316
 440,00;   23,507;    4,995; 9843,439
 441,00;   10,487;    4,683;10147,359
 442,00;   14,672;    1,708; 9880,016
 443,00;    7,244;    4,022; 9609,006
 444,00;   14,168;    4,970; 8842,917
 445,00;   11,841;    3,642; 8717,773
 446,00;   17,368;    0,294; 9108,867
 447,00;   12,235;    3,214; 9446,540
 448,00;   27,573;    1,678;10103,260
 449,00;    4,065;    4,529;10864,071
 450,00;   21,952;    0,285;11428,142
 451,00;   17,428;   -1,116;11859,538
 452,00;   25,468;    1,252;11920,851
 453,00;    1,446;    3,434;12365,451
 454,00;   17,209;   -1,505;12348,034
 455,00;   21,214;    4,028;12907,695
 456,00;   17,657;    6,445;13043,195
 457,00;    7,986;    3,011;13154,216
 458,00;   25,864;    3,227;13466,441
 459,00;    7,261;    1,747;13925,955
 460,00;   15,222;    2,647;13797,224
 461,00;   16,252;    4,310;13717,760
 462,00;   21,717;    2,955;13603,510
 463,00;   18,688;    1,672;13405,965
 464,00;   14,268;    2,324;14202,312
 465,00;   15,095;    6,023;14951,125
 466,00;   12,291;    2,250;15131,470
 467,00;   13,756;   -3,115;14825,442
 468,00;   21,319;    1,957;14679,288
 469,00;   14,533;   -1,137;14474,279
 470,00;   12,774;   -1,581;14051,918
 471,00;   13,185;    1,502;13976,505
 472,00;   19,116;    1,868;14369,674
 473,00;   15,886;   -0,932;14937,848
 474,00;   18,567;    1,334;15444,499
 475,00;   21,313;   -1,157;15589,378
 476,00;   17,032;    6,891;16010,549
 477,00;   20,328;   -2,285;15962,462
 478,00;   10,855;    3,104;16332,794
 479,00;   26,271;    5,322;16686,910
 480,00;   25,119;    0,553;17099,205
 481,00;   24,039;    5,806;17484,386
 482,00;   26,612;    3,372;17809,137
 483,00;   35,344;    2,125;17966,667
 484,00;   35,752;   -3,126;18556,171
 485,00;   34,645;    1,445;22468,907
 486,00;   42,385;    0,811;31549,406
 487,00;   48,357;   -1,395;31339,104
 488,00;   54,018;    6,628;20056,548
 489,00;   55,216;    3,347;18925,110
 490,00;   50,770;    5,383;19158,655
 491,00;   67,644;    1,072;19219,379
 492,00;   70,107;    0,479;19039,717
 493,00;   84,659;    4,369;19073,019
 494,00;   99,317;   -1,705;19310,317
 495,00;  114,999;   -1,691;18904,344
 496,00;  131,758;    5,041;19320,323
 497,00;  132,232;    0,713;19521,951
 498,00;  152,868;    6,657;18975,697
 499,00;  157,243;    0,021;19205,823
 500,00;  180,574;   -0,637;19409,174
 501,00;  202,490;    6,167;19400,656
 502,00;  222,264;    2,731;19825,945
 503,00;  246,357;    3,819;19852,170
 504,00;  287,007;    6,267;19545,973
 505,00;  298,671;    0,363;19039,183
 506,00;  306,335;    3,055;19003,583
 507,00;  349,184;    0,945;18811,889
 508,00;  385,811;   -1,997;18717,782
 509,00;  404,334;   -1,410;18586,254
 510,00;  435,793;    3,725;18561,556
 511,00;  440,142;    2,462;18666,460
 512,00;  480,020;    1,534;18630,675
 513,00;  506,628;    9,685;18387,922
 514,00;  536,839;    6,780;18242,142
 515,00;  561,340;    5,326;17622,089
 516,00;  595,870;    1,225;17554,524
 517,00;  639,649;    1,162;17230,740
 518,00;  660,937;   22,620;17035,085
 519,00;  708,992;    4,323;16742,225
 520,00;  709,481;    3,130;16657,887
 521,00;  756,503;    8,944;16327,533
 522,00;  756,538;    7,491;16240,052
 523,00;  811,911;   -2,718;16176,654
 524,00;  810,919;   -4,601;16443,395
 525,00;  833,152;    4,013;16357,991
 526,00;  877,998;    8,007;16480,530
 527,00;  863,450;    6,683;16252,598
 528,00;  916,531;    4,062;16653,785
 529,00;  951,041;    4,644;16864,332
 530,00;  896,968;   -0,177;17253,771
 531,00;  961,376;   -0,185;17030,089
 532,00;  955,978;    1,673;17490,817
 533,00;  949,038;    0,578;18275,787
 534,00;  976,897;    6,339;19191,745
 535,00;  966,630;   -0,042;19583,412
 536,00; 1018,020;   -5,456;19801,991
 537,00; 1021,506;    3,493;19468,151
 538,00;  977,367;    3,718;19791,057
 539,00;  938,479;    7,833;19953,273
 540,00;  950,951;    2,284;19774,906
 541,00;  959,926;    4,635;19327,634
 542,00;  995,706;    0,439;19376,597
 543,00;  903,622;    1,270;19258,235
 544,00;  923,983;   -0,154;19421,154
 545,00;  868,251;    6,065;19569,175
 546,00;  914,726;   -1,895;19720,234
 547,00;  845,859;    0,648;19926,118
 548,00;  820,144;    0,086;20885,498
 549,00;  829,480;   -0,038;21048,594
 550,00;  800,919;    4,478;20441,229
 551,00;  749,884;    0,368;20291,522
 552,00;  716,838;   -0,605;20750,020
 553,00;  688,342;    6,332;21136,333
 554,00;  638,873;    3,933;21175,515
 555,00;  621,767;    2,375;21441,113
 556,00;  565,385;    0,634;22267,749
 557,00;  554,500;    1,533;22532,690
 558,00;  532,447;    4,612;23078,812
 559,00;  489,722;    3,711;23491,301
 560,00;  472,544;   -1,764;24464,614
 561,00;  434,656;    6,008;25434,026
 562,00;  394,355;    2,368;25900,670
 563,00;  365,526;   -1,849;26285,369
 564,00;  358,229;   11,938;26912,675
 565,00;  337,338;    5,430;27477,788
 566,00;  305,224;    2,382;27874,917
 567,00;  287,044;    3,512;28666,529
 568,00;  255,112;    2,958;29770,636
 569,00;  242,305;   -0,522;31102,097
 570,00;  217,914;    0,188;32978,253
 571,00;  210,253;    2,910;34369,629
 572,00;  182,696;    3,662;35240,696
 573,00;  178,569;   -1,779;35774,339
 574,00;  154,208;    2,880;36874,327
 575,00;  152,443;    0,981;37501,588
 576,00;  138,778;    7,072;37331,900
 577,00;  123,171;    6,284;37778,065
 578,00;  104,471;   -2,775;38695,355
 579,00;   96,451;    6,153;38248,724
 580,00;   96,875;    4,260;37071,396
 581,00;   80,199;    5,770;38578,649
 582,00;   78,855;    2,590;39207,020
 583,00;   78,836;    5,177;37470,977
 584,00;   70,100;    5,213;35636,726
 585,00;   58,999;    2,963;36323,937
 586,00;   64,681;    0,225;36611,662
 587,00;   56,624;    2,959;36328,456
 588,00;   48,747;    7,420;36086,156
 589,00;   41,434;    5,812;35896,728
 590,00;   44,626;    5,054;35650,694
 591,00;   37,023;    8,888;35815,884
 592,00;   37,162;    6,022;36089,818
 593,00;   39,055;   -0,248;36859,857
 594,00;   29,066;   -1,801;36792,130
 595,00;   45,103;    3,127;36973,920
 596,00;   41,777;    0,218;36879,888
 597,00;   30,285;    6,610;37328,150
 598,00;   29,795;    0,515;37101,256
 599,00;   45,133;    1,860;37353,732
 600,00;   28,528;    5,298;37386,589
 601,00;   29,762;    2,013;37851,726
 602,00;   28,171;    0,092;36887,099
 603,00;   21,479;    0,589;37382,548
 604,00;   16,851;    3,939;36696,808
 605,00;   24,354;    4,699;36721,164
 606,00;   28,617;    1,771;36169,331
 607,00;   15,658;    4,815;36331,526
 608,00;   18,109;    7,694;35668,702
 609,00;   20,396;   -1,222;35820,190
 610,00;   19,401;    4,886;35288,211
 611,00;   21,319;    4,182;35331,259
 612,00;   21,396;   -0,146;34836,154
 613,00;   15,592;   -2,113;34671,862
 614,00;   17,521;    0,070;34298,335
 615,00;   17,201;    0,562;34331,296
 616,00;   17,321;    2,960;34028,695
 617,00;   16,233;    5,008;34144,864
 618,00;   16,174;    2,960;34200,385
 619,00;   14,146;    1,023;34374,462
 620,00;   20,329;    2,619;34782,222
 621,00;   24,326;    6,023;35152,758
 622,00;   18,768;    0,418;35441,372
 623,00;    9,473;    5,531;36021,990
 624,00;   18,538;    0,388;36494,263
 625,00;   20,704;    6,006;36262,749
 626,00;   15,458;    1,077;36732,193
 627,00;   28,820;    5,224;36698,499
 628,00;   15,544;    0,370;37373,709
 629,00;   16,849;    9,106;37579,336
 630,00;   17,073;   -0,291;38028,031
 631,00;   22,722;    3,879;38202,109
 632,00;   14,318;    5,007;38990,489
 633,00;   19,788;    0,551;39293,266
 634,00;   15,203;    0,404;40032,573
 635,00;   18,742;    3,114;40600,067
 636,00;   16,236;    5,063;41558,948
 637,00;   19,506;    2,150;41885,449
 638,00;   28,866;    2,875;42892,711
 639,00;   13,102;    2,905;43655,095
 640,00;   17,670;    3,107;44176,099
 641,00;   21,440;    4,516;44978,812
 642,00;   14,052;    6,812;45765,159
 643,00;   15,898;    7,026;46324,008
 644,00;   24,088;    5,651;46714,845
 645,00;   23,432;    0,864;47229,471
 646,00;   21,418;    0,634;47893,808
 647,00;   28,535;    2,331;48047,108
 648,00;   15,132;    3,025;48312,216
 649,00;   21,978;    4,851;48508,625
 650,00;   22,931;    0,434;48522,038
 651,00;   14,710;    3,312;49018,126
 652,00;   25,576;    2,491;48531,035
 653,00;    3,422;    0,635;48870,640
 654,00;   26,092;    0,401;48778,588
 655,00;   25,940;   -0,224;49845,531
 656,00;   21,923;   -0,043;55463,470
 657,00;   13,334;    0,637;56631,300
 658,00;   19,809;    8,040;49246,714
 659,00;    8,853;    2,697;49158,694
 660,00;   19,114;    2,498;48768,216
 661,00;   26,267;    4,144;48814,878
 662,00;   23,984;    5,911;48876,194
 663,00;   19,830;    3,329;48702,559
 664,00;   15,144;    1,404;48892,247
 665,00;   14,439;    2,870;49183,260
 666,00;   26,426;    1,339;49689,752
 667,00;   15,959;    2,657;49188,088
 668,00;   14,992;    2,678;49895,399
 669,00;   21,968;    3,936;49712,233
 670,00;   23,782;    2,760;50304,498
 671,00;   15,665;    0,201;50279,333
 672,00;   11,268;    6,155;50457,989
 673,00;   24,483;    6,194;50480,294
 674,00;    7,477;    6,817;51278,567
 675,00;    8,599;    4,144;50519,404
 676,00;    3,382;    4,146;51341,541
 677,00;   15,982;    5,625;50461,849
 678,00;   13,505;    1,109;50993,719
 679,00;   13,915;    4,677;50473,464
 680,00;   13,356;    4,174;50803,425
 681,00;   21,053;    0,235;49968,370
 682,00;    6,710;    0,662;50400,417
 683,00;    9,719;    2,125;49930,562
 684,00;   14,258;    7,792;49692,460
 685,00;   14,282;    3,155;49829,487
 686,00;   18,773;    5,728;49799,843
 687,00;   16,995;    2,544;50213,077
 688,00;   24,142;    5,236;49460,159
 689,00;   25,516;    3,807;50051,820
 690,00;   23,548;   -2,713;49086,613
 691,00;   17,824;    5,767;50208,881
 692,00;   16,160;    8,461;49553,000
 693,00;   26,273;   -4,389;49815,210
 694,00;   31,158;   -4,831;49597,372
 695,00;   30,098;    1,650;49860,159
 696,00;   31,485;    0,391;49573,614
 697,00;   24,016;    3,312;50198,054
 698,00;   39,263;    5,182;49775,512
 699,00;   38,927;    1,389;49993,374
 700,00;   33,092;    5,814;50249,553
 701,00;   44,356;   -6,151;49671,834
 702,00;   49,797;   24,422;50178,262
 703,00;   58,196;    1,372;49507,536
 704,00;   64,038;    2,128;49640,561
 705,00;   70,052;    2,489;49545,116
 706,00;   93,387;    6,002;49614,926
 707,00;   89,733;    5,496;49508,597
 708,00;   92,411;    0,281;49185,260
 709,00;  110,294;    0,928;48762,067
 710,00;  124,820;    0,257;48784,377
 711,00;  141,063;    2,116;48442,609
 712,00;  152,782;    2,398;48379,045
 713,00;  173,439;    3,319;48124,926
 714,00;  184,934;    3,323;47788,560
 715,00;  202,163;    2,670;47352,499
 716,00;  221,811;    1,001;47327,557
 717,00;  253,860;   -0,767;47075,032
 718,00;  284,579;    4,123;46231,429
 719,00;  288,360;    4,611;46379,970
 720,00;  315,828;    5,204;45934,552
 721,00;  338,765;    5,484;46184,420
 722,00;  337,168;   -1,745;45333,735
 723,00;  404,655;   -4,147;45312,754
 724,00;  423,458;    1,669;45384,225
 725,00;  430,693;    3,052;45169,462
 726,00;  461,476;   -1,233;45215,307
 727,00;  491,612;    4,459;45402,216
 728,00;  533,612;    3,743;45198,493
 729,00;  539,804;   -0,075;45036,927
 730,00;  592,735;    2,884;45281,836
 731,00;  619,384;    2,623;45243,883
 732,00;  692,223;    9,943;45542,623
 733,00;  706,889;   -1,006;45407,017
 734,00;  730,492;   -3,252;45594,318
 735,00;  742,975;   -1,722;45662,838
 736,00;  862,821;    6,782;45648,534
 737,00;  846,708;    7,536;45893,661
 738,00;  877,206;    8,522;45643,223
 739,00;  965,180;    7,767;45171,118
 740,00;  984,628;    2,215;45144,134
 741,00;  977,747;    3,690;45207,829
 742,00; 1109,616;    4,659;45004,046
 743,00; 1085,408;    5,013;44853,548
 744,00; 1150,144;    1,821;44322,740
 745,00; 1173,092;    7,429;44563,896
 746,00; 1193,122;    1,159;44189,251
 747,00; 1261,868;    8,505;43951,240
 748,00; 1291,721;    7,888;43273,005
 749,00; 1372,680;    2,018;43377,164
 750,00; 1413,774;    3,416;43159,180
 751,00; 1446,541;    4,206;42515,226
 752,00; 1486,006;    5,343;42079,535
 753,00; 1493,802;    5,282;41340,851
 754,00; 1496,210;    2,805;41319,095
 755,00; 1531,592;    3,716;40276,796
 756,00; 1575,434;    6,277;40243,016
 757,00; 1496,638;    3,754;39576,232
 758,00; 1598,177;    7,402;39704,427
 759,00; 1612,836;    7,962;39000,068
 760,00; 1724,991;    0,977;38547,462
 761,00; 1668,649;    4,183;38153,991
 762,00; 1815,256;    3,050;37786,002
 763,00; 1799,177;    5,642;37426,534
 764,00; 1870,803;    1,250;37181,135
 765,00; 1876,942;   -0,754;37171,447
 766,00; 1934,940;    5,452;36472,322
 767,00; 1958,314;    4,444;36253,979
 768,00; 1966,584;    1,429;36376,863
 769,00; 1985,381;   -1,182;36175,867
 770,00; 1996,213;   -1,209;35848,783
 771,00; 2183,490;   10,193;36034,098
 772,00; 2105,444;    1,801;35733,893
 773,00; 2222,809;    6,087;35890,631
 774,00; 2260,020;    5,606;35598,640
 775,00; 2131,564;    1,026;35517,664
 776,00; 2152,983;    6,113;35840,170
 777,00; 2089,795;    3,884;35458,882
 778,00; 2335,926;    1,515;35524,560
 779,00; 2395,188;    0,783;35476,436
 780,00; 2365,690;    4,404;35814,053
 781,00; 2377,828;    3,630;35835,393
 782,00; 2422,055;   -0,328;36141,052
 783,00; 2239,298;    0,491;36275,895
 784,00; 2495,742;    7,288;36455,008
 785,00; 2387,446;    1,558;36454,477
 786,00; 2412,137;    4,119;36609,201
 787,00; 2573,009;    3,715;36901,355
 788,00; 2701,973;    4,785;36724,684
 789,00; 2554,208;    1,940;36884,133
 790,00; 2482,336;    2,064;36639,539
 791,00; 2611,785;    5,108;37085,536
 792,00; 2680,123;    6,224;36549,884
 793,00; 2641,286;    6,098;36684,174
 794,00; 2710,048;    5,712;36363,303
 795,00; 2755,508;   -0,945;36473,159
 796,00; 2952,395;    0,387;36404,456
 797,00; 2721,072;    2,339;36042,595
 798,00; 2804,770;   -3,596;35780,798
 799,00; 3001,782;    4,808;35420,531
 800,00; 2768,792;    4,171;35284,582
 801,00; 2700,243;    5,810;34440,825
 802,00; 2736,471;   -2,867;34443,663
 803,00; 2809,189;    2,139;34307,753
 804,00; 2784,636;    2,001;34113,270
 805,00; 2653,918;    2,988;33636,256
 806,00; 2685,693;   -0,298;33060,784
 807,00; 2605,432;   -0,155;33033,672
 808,00; 2803,149;    4,308;32711,975
 809,00; 2698,961;    8,518;32425,260
 810,00; 2722,923;    3,259;32035,332
 811,00; 2679,601;    1,769;32125,824
 812,00; 2772,444;    1,863;31797,090
 813,00; 2750,274;    1,186;31540,208
 814,00; 2785,470;    5,133;31671,525
 815,00; 2831,310;    3,829;31296,928
 816,00; 2796,233;    3,106;31108,752
 817,00; 2662,425;    2,016;30605,363
 818,00; 2737,897;    4,338;30997,159
 819,00; 2708,396;    3,089;30405,419
 820,00; 2679,264;    7,159;30148,499
 821,00; 2800,110;    2,660;30164,743
 822,00; 2644,508;    0,408;29768,480
 823,00; 2641,906;    6,590;29524,454
 824,00; 2661,293;   -2,013;29316,800
 825,00; 2691,304;    7,821;29135,353
 826,00; 2672,353;    4,077;28735,114
 827,00; 2625,001;    6,341;28999,641
 828,00; 2462,751;    3,056;28742,113
 829,00; 2621,632;    0,872;28675,432
 830,00; 2648,042;    2,746;28333,158
 831,00; 2508,118;    2,474;28399,951
 832,00; 2688,817;    0,378;28376,515
 833,00; 2624,350;    8,963;28079,363
 834,00; 2591,807;    0,427;28282,931
 835,00; 2567,544;    3,908;28028,234
 836,00; 2446,208;    0,164;28263,872
 837,00; 2519,723;    4,288;27715,610
 838,00; 2487,172;    5,189;27993,888
 839,00; 2497,838;    2,788;27779,555
 840,00; 2568,570;    5,828;27701,236
 841,00; 2624,956;    1,944;27736,924
 842,00; 2597,155;    1,551;27678,304
 843,00; 2625,467;    2,396;27753,145
 844,00; 2438,997;    2,294;27398,003
 845,00; 2448,536;    2,821;27621,076
 846,00; 2448,027;    3,304;27366,872
 847,00; 2542,722;    1,994;27096,838
 848,00; 2558,456;    5,303;27264,237
 849,00; 2570,285;    3,693;26825,401
 850,00; 2471,312;    3,226;26883,147
 851,00; 2472,209;   -0,704;26469,412
 852,00; 2543,976;    0,601;26592,544
 853,00; 2376,124;    4,262;26031,020
 854,00; 2498,175;   -0,040;26191,045
 855,00; 2337,379;    2,968;25751,538
 856,00; 2339,148;    3,760;25443,997
 857,00; 2301,338;    1,498;25275,101
 858,00; 2388,084;    1,043;24925,711
 859,00; 2416,498;   -1,107;24959,569
 860,00; 2282,749;    9,451;24400,622
 861,00; 2342,196;    5,719;24441,330
 862,00; 2152,465;    0,653;23886,421
 863,00; 2187,733;    2,847;23555,331
 864,00; 2137,151;   -0,398;23319,195
 865,00; 2090,309;    3,187;22848,051
 866,00; 2042,080;    4,585;22877,885
 867,00; 2032,866;    0,949;22519,785
 868,00; 2117,616;   -4,376;22195,715
 869,00; 2161,552;    0,732;21534,061
 870,00; 1904,364;   -2,655;21645,564
 871,00; 1947,472;    5,622;21223,098
 872,00; 2028,796;    3,223;20818,920
 873,00; 2024,292;    4,779;20710,818
 874,00; 2054,756;   -0,088;20160,841
 875,00; 1865,370;    3,700;20174,218
 876,00; 1855,251;    1,890;19757,687
 877,00; 1888,300;    4,817;19629,732
 878,00; 1908,843;    9,605;19354,176
 879,00; 1887,140;    2,998;19113,723
 880,00; 1906,000;   -1,484;18811,927
 881,00; 1782,030;   56,385;18802,218
 882,00; 1767,388;   -2,872;18731,867
 883,00; 1736,327;    0,959;18789,016
 884,00; 1664,908;    9,259;18731,407
 885,00; 1715,947;    5,312;18705,487
 886,00; 1710,488;    2,379;18851,221
 887,00; 1721,507;   -0,006;19028,694
 888,00; 1669,387;    6,616;19049,508
 889,00; 1921,931;   -2,783;19456,452
 890,00; 1880,150;    2,266;19130,202
 891,00; 1843,863;    4,306;19317,597
 892,00; 1782,630;    7,445;19339,873
 893,00; 1752,471;    2,059;19376,474
 894,00; 1877,307;    7,355;19579,345
 895,00; 1859,135;    3,550;19578,151
 896,00; 1875,391;    0,691;19794,546
 897,00; 1823,252;    1,859;19521,503
 898,00; 1901,964;    0,633;19497,863
 899,00; 1819,112;    1,597;19606,431
 900,00; 1782,141;    4,871;19487,794
 901,00; 1853,840;    0,429;19487,021
 902,00; 1805,640;    1,193;19482,143
 903,00; 1881,967;    5,184;19496,932
 904,00; 1821,250;    4,196;19361,232
 905,00; 1761,967;    3,040;19177,774
 906,00; 1701,876;    2,088;19183,469
 907,00; 1766,350;    0,821;18880,744
 908,00; 1870,206;    2,884;18753,880
 909,00; 1807,096;    3,956;18443,324
 910,00; 1692,790;    4,127;18496,056
 911,00; 1683,599;    0,490;18159,364
 912,00; 1679,474;    3,369;18072,057
 913,00; 1685,336;   -1,364;17948,099
 914,00; 1759,638;    3,961;17512,267
 915,00; 1705,049;    0,781;17686,300
 916,00; 1665,798;    1,643;17283,177
 917,00; 1747,319;    4,271;17033,662
 918,00; 1699,909;    0,666;16796,326
 919,00; 1532,511;    2,611;16545,951
 920,00; 1687,761;    5,666;16356,050
 921,00; 1594,252;    5,856;16109,987
 922,00; 1551,057;    8,668;15895,350
 923,00; 1566,189;    2,391;15548,135
 924,00; 1695,796;    3,682;15312,339
 925,00; 1553,165;    3,474;14994,079
 926,00; 1430,858;    3,483;14609,696
 927,00; 1492,859;    4,173;14447,626
 928,00; 1367,949;    4,918;13910,609
 929,00; 1410,727;    3,297;13868,985
 930,00; 1344,296;    5,804;13383,963
 931,00; 1359,442;    1,265;13092,079
 932,00; 1355,693;   -2,047;12825,786
 933,00; 1253,369;    0,686;12357,902
 934,00; 1394,169;    3,707;12086,283
 935,00; 1366,890;   -0,258;11287,042
 936,00; 1308,066;    0,000;10652,333
 937,00; 1303,747;    0,621; 9968,240
 938,00; 1284,212;    3,722; 9160,350
 939,00; 1275,070;   -1,002; 8456,071
 940,00; 1321,411;    6,402; 7698,365
 941,00; 1119,331;    1,931; 7372,742
 942,00; 1148,278;    4,238; 7012,068
 943,00; 1181,294;    3,338; 6750,658
 944,00; 1171,432;    6,158; 6704,312
 945,00; 1145,762;    3,383; 6645,972
 946,00; 1071,128;    1,673; 6750,353
 947,00; 1035,585;    2,045; 6684,124
 948,00; 1113,466;    3,077; 6859,087
 949,00; 1077,840;   -0,724; 6905,299
 950,00; 1006,933;    4,303; 6970,891
 951,00;  991,429;    3,734; 7242,058
 952,00;  938,283;    1,565; 7155,168
 953,00; 1008,779;    1,470; 7528,332
 954,00; 1018,168;    3,194; 7534,413
 955,00; 1037,624;    4,253; 7624,742
 956,00; 1004,702;   -3,211; 7670,394
 957,00; 1008,554;    6,497; 7760,754
 958,00;  980,793;    2,368; 7982,426
 959,00;  917,624;   -0,842; 7792,457
 960,00;  905,349;    1,568; 7892,791
 961,00;  962,595;    3,466; 7960,323
 962,00;  887,659;    3,733; 8009,871
 963,00;  891,829;   -1,271; 8056,483
 964,00;  852,946;    2,504; 7940,252
 965,00;  867,539;    0,979; 8034,092
 966,00;  870,349;    5,138; 7920,691
 967,00;  785,343;    4,504; 7920,096
 968,00;  842,772;    1,336; 7911,080
 969,00;  901,299;    3,643; 7810,097
 970,00;  844,218;    4,112; 7812,516
 971,00;  826,323;    0,975; 7822,167
 972,00;  853,717;    2,244; 7703,449
 973,00;  825,506;    3,829; 7741,144
 974,00;  777,282;    3,528; 7606,739
 975,00;  777,795;    9,840; 7616,591
 976,00;  735,002;    3,540; 7491,415
 977,00;  776,704;    1,158; 7433,090
 978,00;  766,908;    3,851; 7390,934
 979,00;  696,402;    5,284; 7234,839
 980,00;  738,521;    3,377; 7221,538
 981,00;  680,296;    4,103; 7101,498
 982,00;  685,984;    5,376; 7030,563
 983,00;  688,232;    0,185; 6964,459
 984,00;  668,962;    1,903; 6791,681
 985,00;  718,212;   -0,735; 6884,786
 986,00;  624,292;    3,984; 6535,673
 987,00;  696,560;    4,619; 6531,601
 988,00;  641,471;    7,786; 6458,635
 989,00;  614,824;    3,408; 6330,281
 990,00;  659,846;    7,383; 6200,638
 991,00;  592,686;    3,803; 6044,263
 992,00;  581,837;    4,066; 5979,043
 993,00;  552,793;    2,968; 5879,213
 994,00;  549,231;    2,697; 5837,352
 995,00;  545,659;    4,746; 5672,640
 996,00;  477,642;    4,696; 5479,321
 997,00;  506,993;    4,116; 5421,606
 998,00;  511,939;    2,840; 5304,811
 999,00;  475,435;   -2,846; 5076,878
1000,00;  480,863;   -0,401; 5073,507
1001,00;  501,035;    2,413; 4934,566
1002,00;  469,229;    2,721; 4771,740
1003,00;  441,470;    3,193; 4659,475
1004,00;  448,368;    3,318; 4567,170
1005,00;  396,822;    2,971; 4448,672
1006,00;  409,290;    6,215; 4290,081
1007,00;  403,784;    3,138; 4197,557
1008,00;  397,050;    2,955; 4092,298
1009,00;  369,261;    5,693; 3950,825
1010,00;  373,117;    3,239; 3976,646
1011,00;  363,302;    4,341; 3852,594
1012,00;  366,895;    4,219; 3822,411
1013,00;  374,159;    3,989; 3796,641
1014,00;  362,662;    1,826; 3774,270
1015,00;  331,338;    5,844; 3813,325
1016,00;  362,638;    6,027; 3750,420
1017,00;  375,788;    2,137; 3730,661
1018,00;  390,185;    0,792; 3654,573
1019,00;  347,572;    0,720; 3574,519
1020,00;  336,838;    6,298; 3499,290
1021,00;  321,579;    7,873; 3310,743
1022,00;  346,455;    4,791; 3253,565
1023,00;  335,527;    2,559; 3145,936
1024,00;  327,221;    1,850; 3073,108
1025,00;  304,886;    0,314; 2982,295
1026,00;  278,757;    0,408; 2842,767
1027,00;  292,455;    3,243; 2770,938
1028,00;  274,813;    3,014; 2630,616
1029,00;  265,632;    4,191; 2552,565
1030,00;  242,554;    3,906; 2458,928
1031,00;  250,676;    2,348; 2376,469
1032,00;  237,215;   -0,189; 2339,266
1033,00;  228,072;    1,268; 2230,116
1034,00;  210,259;    9,510; 2165,551
1035,00;  225,892;    1,348; 2093,223
1036,00;  225,423;    3,156; 2021,790
1037,00;  205,245;    1,820; 1948,954
1038,00;  201,774;    3,195; 1904,856
1039,00;  211,655;    0,630; 1843,503
1040,00;  189,074;    0,761; 1762,364
1041,00;  176,080;    2,140; 1731,450
1042,00;  168,792;    4,696; 1670,515
1043,00;  170,948;    3,250; 1609,635
1044,00;  173,372;    6,727; 1568,765
1045,00;  155,411;    5,127; 1523,020
1046,00;  160,039;    6,818; 1478,453
1047,00;  163,618;    1,683; 1429,356
1048,00;  151,963;    5,404; 1394,443
1049,00;  147,921;    4,401; 1342,936
1050,00;  124,506;    2,565; 1315,683
1051,00;  139,424;    2,439; 1277,001
1052,00;  124,451;    4,119; 1231,814
1053,00;  128,200;    5,556; 1222,191
1054,00;  126,442;    4,484; 1197,243
1055,00;  123,620;   -7,048; 1156,731
1056,00;  119,682;   23,212; 1136,129
1057,00;  114,119;    1,466; 1075,188
1058,00;  101,218;    1,519; 1064,890
1059,00;  116,528;   -1,981; 1025,328
1060,00;  108,629;    4,271;  991,931
1061,00;  101,799;    4,827;  969,708
1062,00;  114,205;    5,977;  948,920
1063,00;  105,484;    5,065;  912,247
1064,00;   90,875;    6,614;  896,884
1065,00;   87,071;    2,581;  859,071
1066,00;   85,683;    3,721;  850,201
1067,00;   97,364;    1,855;  833,671
1068,00;   84,840;    4,291;  803,982
1069,00;   84,899;    0,971;  800,529
1070,00;   88,609;   -6,648;  781,254
1071,00;   87,126;    0,465;  784,165
1072,00;   83,487;    1,958;  755,231
1073,00;   80,873;   -1,788;  743,175
1074,00;   81,813;    9,582;  722,567
1075,00;   71,355;    4,458;  707,139
1076,00;   68,469;    5,820;  694,732
1077,00;   67,072;   -1,830;  672,129
1078,00;   63,647;    7,273;  667,702
1079,00;   83,327;    9,890;  658,769
1080,00;   78,582;    0,934;  642,278
1081,00;   66,435;    3,234;  627,163
1082,00;   61,804;    5,023;  601,046
1083,00;   69,462;    1,785;  571,290
1084,00;   66,545;    0,679;  605,954
1085,00;   61,125;    3,167;  585,327
1086,00;   59,014;    2,699;  555,308
1087,00;   45,317;    3,714;  557,223
1088,00;   65,595;    5,041;  527,679
1089,00;   46,328;    1,571;  504,374
1090,00;   47,284;    1,848;  495,711
1091,00;   68,172;   -2,199;  496,580
1092,00;   51,415;    8,707;  484,457
1093,00;   49,057;    4,808;  462,186
1094,00;   52,438;    2,264;  452,215
1095,00;   39,614;    3,360;  435,345
1096,00;   56,670;    3,219;  424,386
1097,00;   45,986;    3,403;  414,662
1098,00;   48,161;    0,315;  403,777
1099,00;   Not Available
1100,00;   Not Available

