
Integration time [ms]:   2,000
Averaging Nr. [scans]: 30
Smoothing Nr. [pixels]: 0
Data measured with spectrometer [name]: 0901140U1
Wave   ;Sample   ;Dark     ;Reference;Scope
[nm]   ;[counts] ;[counts] ;[counts] 

 260,00;   Not Available
 261,00;   Not Available
 262,00;   Not Available
 263,00;   Not Available
 264,00;   Not Available
 265,00;   Not Available
 266,00;   Not Available
 267,00;   Not Available
 268,00;   Not Available
 269,00;   Not Available
 270,00;   Not Available
 271,00;   Not Available
 272,00;   Not Available
 273,00;   Not Available
 274,00;   Not Available
 275,00;   Not Available
 276,00;   Not Available
 277,00;   Not Available
 278,00;   Not Available
 279,00;   Not Available
 280,00;   Not Available
 281,00;   Not Available
 282,00;   Not Available
 283,00;   Not Available
 284,00;   Not Available
 285,00;   Not Available
 286,00;   Not Available
 287,00;   Not Available
 288,00;   Not Available
 289,00;   Not Available
 290,00;   Not Available
 291,00;   Not Available
 292,00;   Not Available
 293,00;   Not Available
 294,00;   Not Available
 295,00;   Not Available
 296,00;   Not Available
 297,00;   Not Available
 298,00;   Not Available
 299,00;   Not Available
 300,00;   Not Available
 301,00;   Not Available
 302,00;   Not Available
 303,00;   Not Available
 304,00;   Not Available
 305,00;   Not Available
 306,00;   Not Available
 307,00;   Not Available
 308,00;   Not Available
 309,00;   Not Available
 310,00;   Not Available
 311,00;   Not Available
 312,00;   Not Available
 313,00;   Not Available
 314,00;   Not Available
 315,00;   Not Available
 316,00;   Not Available
 317,00;   Not Available
 318,00;   Not Available
 319,00;   Not Available
 320,00;   Not Available
 321,00;   Not Available
 322,00;   Not Available
 323,00;   Not Available
 324,00;   Not Available
 325,00;   Not Available
 326,00;   Not Available
 327,00;   Not Available
 328,00;   Not Available
 329,00;   Not Available
 330,00;   Not Available
 331,00;   Not Available
 332,00;   Not Available
 333,00;   Not Available
 334,00;   Not Available
 335,00;   Not Available
 336,00;   Not Available
 337,00;   Not Available
 338,00;   Not Available
 339,00;   Not Available
 340,00;   Not Available
 341,00;   Not Available
 342,00;   Not Available
 343,00;   16,983;   -0,042; 5308,653
 344,00;   29,541;    3,248; 5435,737
 345,00;   25,686;   -0,687; 5586,839
 346,00;   23,449;   -1,316; 5899,019
 347,00;   24,614;    0,583; 6169,222
 348,00;   18,609;    4,643; 6334,159
 349,00;   23,791;    1,589; 6593,907
 350,00;   22,470;   -0,161; 6639,549
 351,00;   25,486;   -3,740; 6811,936
 352,00;   19,367;    4,863; 6805,536
 353,00;   23,488;    3,098; 6722,142
 354,00;   15,940;   11,456; 6660,788
 355,00;   13,800;   -0,317; 6859,957
 356,00;   21,028;    3,085; 7013,905
 357,00;   22,469;    1,773; 7062,159
 358,00;   20,286;   -1,850; 7139,153
 359,00;   22,082;    5,362; 7172,313
 360,00;   20,439;   -0,945; 7184,622
 361,00;   21,740;    4,640; 7271,278
 362,00;   20,436;    1,986; 7267,726
 363,00;   20,217;   -1,653; 7353,291
 364,00;   21,944;    3,267; 7347,788
 365,00;   22,067;   -2,526; 7376,368
 366,00;   30,993;    5,423; 7425,625
 367,00;   26,016;    1,077; 7691,767
 368,00;   25,862;   -0,660; 7901,408
 369,00;   21,429;   -2,295; 7832,170
 370,00;   29,677;    0,997; 8026,802
 371,00;   29,217;    0,108; 7804,205
 372,00;   30,292;   -0,688; 7872,014
 373,00;   20,754;    1,758; 7907,641
 374,00;   23,660;    0,283; 7977,145
 375,00;   24,387;    0,361; 7791,377
 376,00;   25,264;    1,476; 7795,045
 377,00;   36,352;    4,076; 7797,232
 378,00;   22,607;    4,427; 8369,540
 379,00;   19,767;    6,374; 8415,530
 380,00;   26,129;    4,474; 8362,086
 381,00;   26,401;    8,202; 8145,759
 382,00;   28,588;    8,451; 8040,339
 383,00;   19,863;    3,121; 7942,856
 384,00;   21,497;    2,617; 7877,278
 385,00;   23,400;    1,733; 7830,965
 386,00;   19,759;    3,665; 8065,170
 387,00;   20,827;    7,203; 8047,448
 388,00;   16,542;    4,292; 8521,671
 389,00;   36,737;    3,476; 8246,824
 390,00;   21,516;   -3,709; 8205,581
 391,00;   37,974;    0,076; 7955,041
 392,00;   27,235;    7,527; 8241,355
 393,00;   33,508;    1,829; 8365,932
 394,00;   25,368;    9,557; 7975,822
 395,00;   34,955;   -2,359; 8086,842
 396,00;   26,122;    5,159; 8008,916
 397,00;   25,091;    7,819; 8328,379
 398,00;   27,340;    0,294; 8563,734
 399,00;   22,712;    6,943; 8852,164
 400,00;   14,116;    5,366; 8319,759
 401,00;   14,758;    3,627; 7747,729
 402,00;   28,794;    1,281; 7571,799
 403,00;   23,682;    6,363; 7412,172
 404,00;   32,848;    5,728; 7669,434
 405,00;   37,931;    1,982; 7609,302
 406,00;   33,424;    0,823; 7620,879
 407,00;   32,919;    6,431; 7442,482
 408,00;   23,592;    2,157; 7481,070
 409,00;   27,832;   -0,802; 7398,022
 410,00;   31,773;    2,440; 7427,271
 411,00;   37,369;    3,476; 7405,718
 412,00;   34,348;    6,473; 7360,099
 413,00;   30,309;    2,681; 7486,115
 414,00;   30,051;    2,528; 7927,028
 415,00;   32,389;    5,374; 7686,086
 416,00;   26,928;    0,564; 7494,637
 417,00;   32,086;    1,319; 7471,791
 418,00;   35,724;    3,676; 7560,669
 419,00;   23,752;    4,244; 7755,964
 420,00;   30,838;    3,001; 8012,610
 421,00;   37,134;    6,532; 8465,100
 422,00;   36,656;    6,996; 9161,408
 423,00;   27,774;   -2,817; 9191,825
 424,00;   42,800;   -0,062; 9271,484
 425,00;   33,725;    5,149; 8852,789
 426,00;   35,844;    2,015; 8801,746
 427,00;   34,739;    2,890; 8997,735
 428,00;   26,524;    2,147; 9554,482
 429,00;   31,021;    2,279; 9685,289
 430,00;   32,723;    6,943;10238,988
 431,00;   27,210;    2,435;10520,281
 432,00;   26,688;    1,956; 9940,647
 433,00;   31,874;    0,383; 9535,601
 434,00;   33,463;    3,284; 9904,623
 435,00;   37,194;    1,111;10198,457
 436,00;   36,136;    3,710;10046,201
 437,00;   36,200;    2,990;10107,762
 438,00;   28,884;   -1,790;10187,177
 439,00;   30,401;    0,801; 9930,316
 440,00;   34,842;    4,995; 9843,439
 441,00;   27,841;    4,683;10147,359
 442,00;   36,073;    1,708; 9880,016
 443,00;   31,115;    4,022; 9609,006
 444,00;   38,982;    4,970; 8842,917
 445,00;   35,294;    3,642; 8717,773
 446,00;   31,620;    0,294; 9108,867
 447,00;   34,793;    3,214; 9446,540
 448,00;   28,144;    1,678;10103,260
 449,00;   29,321;    4,529;10864,071
 450,00;   38,568;    0,285;11428,142
 451,00;   38,198;   -1,116;11859,538
 452,00;   36,630;    1,252;11920,851
 453,00;   32,832;    3,434;12365,451
 454,00;   34,951;   -1,505;12348,034
 455,00;   39,540;    4,028;12907,695
 456,00;   41,971;    6,445;13043,195
 457,00;   37,285;    3,011;13154,216
 458,00;   29,821;    3,227;13466,441
 459,00;   31,143;    1,747;13925,955
 460,00;   35,270;    2,647;13797,224
 461,00;   38,826;    4,310;13717,760
 462,00;   33,505;    2,955;13603,510
 463,00;   32,408;    1,672;13405,965
 464,00;   31,353;    2,324;14202,312
 465,00;   38,655;    6,023;14951,125
 466,00;   30,043;    2,250;15131,470
 467,00;   34,812;   -3,115;14825,442
 468,00;   35,422;    1,957;14679,288
 469,00;   37,023;   -1,137;14474,279
 470,00;   33,449;   -1,581;14051,918
 471,00;   41,116;    1,502;13976,505
 472,00;   25,188;    1,868;14369,674
 473,00;   29,607;   -0,932;14937,848
 474,00;   40,125;    1,334;15444,499
 475,00;   27,178;   -1,157;15589,378
 476,00;   39,074;    6,891;16010,549
 477,00;   39,525;   -2,285;15962,462
 478,00;   31,095;    3,104;16332,794
 479,00;   38,821;    5,322;16686,910
 480,00;   23,163;    0,553;17099,205
 481,00;   27,083;    5,806;17484,386
 482,00;   32,651;    3,372;17809,137
 483,00;   32,865;    2,125;17966,667
 484,00;   33,434;   -3,126;18556,171
 485,00;   27,891;    1,445;22468,907
 486,00;   27,990;    0,811;31549,406
 487,00;   27,018;   -1,395;31339,104
 488,00;   35,836;    6,628;20056,548
 489,00;   33,653;    3,347;18925,110
 490,00;   38,186;    5,383;19158,655
 491,00;   34,016;    1,072;19219,379
 492,00;   30,840;    0,479;19039,717
 493,00;   27,750;    4,369;19073,019
 494,00;   39,674;   -1,705;19310,317
 495,00;   26,276;   -1,691;18904,344
 496,00;   36,884;    5,041;19320,323
 497,00;   31,124;    0,713;19521,951
 498,00;   35,711;    6,657;18975,697
 499,00;   40,376;    0,021;19205,823
 500,00;   28,767;   -0,637;19409,174
 501,00;   32,716;    6,167;19400,656
 502,00;   32,901;    2,731;19825,945
 503,00;   30,870;    3,819;19852,170
 504,00;   37,551;    6,267;19545,973
 505,00;   36,009;    0,363;19039,183
 506,00;   40,212;    3,055;19003,583
 507,00;   35,210;    0,945;18811,889
 508,00;   51,398;   -1,997;18717,782
 509,00;   25,976;   -1,410;18586,254
 510,00;   35,676;    3,725;18561,556
 511,00;   36,751;    2,462;18666,460
 512,00;   35,838;    1,534;18630,675
 513,00;   33,340;    9,685;18387,922
 514,00;   31,322;    6,780;18242,142
 515,00;   39,449;    5,326;17622,089
 516,00;   39,375;    1,225;17554,524
 517,00;   38,512;    1,162;17230,740
 518,00;   29,121;   22,620;17035,085
 519,00;   28,393;    4,323;16742,225
 520,00;   32,996;    3,130;16657,887
 521,00;   33,671;    8,944;16327,533
 522,00;   34,448;    7,491;16240,052
 523,00;   33,007;   -2,718;16176,654
 524,00;   35,942;   -4,601;16443,395
 525,00;   29,983;    4,013;16357,991
 526,00;   35,982;    8,007;16480,530
 527,00;   29,926;    6,683;16252,598
 528,00;   32,549;    4,062;16653,785
 529,00;   41,076;    4,644;16864,332
 530,00;   39,606;   -0,177;17253,771
 531,00;   31,428;   -0,185;17030,089
 532,00;   38,195;    1,673;17490,817
 533,00;   40,512;    0,578;18275,787
 534,00;   29,027;    6,339;19191,745
 535,00;   31,955;   -0,042;19583,412
 536,00;   38,272;   -5,456;19801,991
 537,00;   29,873;    3,493;19468,151
 538,00;   44,311;    3,718;19791,057
 539,00;   39,704;    7,833;19953,273
 540,00;   43,493;    2,284;19774,906
 541,00;   31,526;    4,635;19327,634
 542,00;   31,210;    0,439;19376,597
 543,00;   36,098;    1,270;19258,235
 544,00;   29,889;   -0,154;19421,154
 545,00;   34,982;    6,065;19569,175
 546,00;   44,168;   -1,895;19720,234
 547,00;   36,191;    0,648;19926,118
 548,00;   31,574;    0,086;20885,498
 549,00;   25,396;   -0,038;21048,594
 550,00;   28,019;    4,478;20441,229
 551,00;   43,424;    0,368;20291,522
 552,00;   38,545;   -0,605;20750,020
 553,00;   20,768;    6,332;21136,333
 554,00;   37,430;    3,933;21175,515
 555,00;   34,670;    2,375;21441,113
 556,00;   26,772;    0,634;22267,749
 557,00;   35,300;    1,533;22532,690
 558,00;   40,434;    4,612;23078,812
 559,00;   33,747;    3,711;23491,301
 560,00;   32,877;   -1,764;24464,614
 561,00;   45,613;    6,008;25434,026
 562,00;   47,255;    2,368;25900,670
 563,00;   41,349;   -1,849;26285,369
 564,00;   33,846;   11,938;26912,675
 565,00;   41,658;    5,430;27477,788
 566,00;   41,988;    2,382;27874,917
 567,00;   32,157;    3,512;28666,529
 568,00;   37,554;    2,958;29770,636
 569,00;   38,283;   -0,522;31102,097
 570,00;   36,533;    0,188;32978,253
 571,00;   35,885;    2,910;34369,629
 572,00;   31,119;    3,662;35240,696
 573,00;   45,372;   -1,779;35774,339
 574,00;   43,085;    2,880;36874,327
 575,00;   41,492;    0,981;37501,588
 576,00;   49,153;    7,072;37331,900
 577,00;   38,685;    6,284;37778,065
 578,00;   45,806;   -2,775;38695,355
 579,00;   34,808;    6,153;38248,724
 580,00;   32,666;    4,260;37071,396
 581,00;   47,504;    5,770;38578,649
 582,00;   44,052;    2,590;39207,020
 583,00;   45,075;    5,177;37470,977
 584,00;   56,413;    5,213;35636,726
 585,00;   54,814;    2,963;36323,937
 586,00;   63,695;    0,225;36611,662
 587,00;   72,241;    2,959;36328,456
 588,00;   96,066;    7,420;36086,156
 589,00;  110,660;    5,812;35896,728
 590,00;  151,442;    5,054;35650,694
 591,00;  198,265;    8,888;35815,884
 592,00;  241,506;    6,022;36089,818
 593,00;  322,722;   -0,248;36859,857
 594,00;  381,081;   -1,801;36792,130
 595,00;  482,535;    3,127;36973,920
 596,00;  552,179;    0,218;36879,888
 597,00;  692,780;    6,610;37328,150
 598,00;  819,899;    0,515;37101,256
 599,00;  955,420;    1,860;37353,732
 600,00; 1073,141;    5,298;37386,589
 601,00; 1261,831;    2,013;37851,726
 602,00; 1410,655;    0,092;36887,099
 603,00; 1552,738;    0,589;37382,548
 604,00; 1695,884;    3,939;36696,808
 605,00; 1886,174;    4,699;36721,164
 606,00; 1976,503;    1,771;36169,331
 607,00; 2117,655;    4,815;36331,526
 608,00; 2133,044;    7,694;35668,702
 609,00; 2249,042;   -1,222;35820,190
 610,00; 2347,376;    4,886;35288,211
 611,00; 2507,248;    4,182;35331,259
 612,00; 2513,497;   -0,146;34836,154
 613,00; 2571,619;   -2,113;34671,862
 614,00; 2616,777;    0,070;34298,335
 615,00; 2710,336;    0,562;34331,296
 616,00; 2704,392;    2,960;34028,695
 617,00; 2749,209;    5,008;34144,864
 618,00; 2942,194;    2,960;34200,385
 619,00; 2871,270;    1,023;34374,462
 620,00; 2962,868;    2,619;34782,222
 621,00; 3012,432;    6,023;35152,758
 622,00; 3181,657;    0,418;35441,372
 623,00; 3274,155;    5,531;36021,990
 624,00; 3291,968;    0,388;36494,263
 625,00; 3386,362;    6,006;36262,749
 626,00; 3438,173;    1,077;36732,193
 627,00; 3447,402;    5,224;36698,499
 628,00; 3732,478;    0,370;37373,709
 629,00; 3808,368;    9,106;37579,336
 630,00; 3827,608;   -0,291;38028,031
 631,00; 3887,033;    3,879;38202,109
 632,00; 3918,535;    5,007;38990,489
 633,00; 3902,945;    0,551;39293,266
 634,00; 4047,399;    0,404;40032,573
 635,00; 4247,648;    3,114;40600,067
 636,00; 4278,403;    5,063;41558,948
 637,00; 4296,206;    2,150;41885,449
 638,00; 4427,623;    2,875;42892,711
 639,00; 4348,272;    2,905;43655,095
 640,00; 4647,063;    3,107;44176,099
 641,00; 4536,440;    4,516;44978,812
 642,00; 4803,062;    6,812;45765,159
 643,00; 4766,164;    7,026;46324,008
 644,00; 4747,999;    5,651;46714,845
 645,00; 4781,412;    0,864;47229,471
 646,00; 5033,029;    0,634;47893,808
 647,00; 4891,337;    2,331;48047,108
 648,00; 5090,911;    3,025;48312,216
 649,00; 5021,425;    4,851;48508,625
 650,00; 5035,145;    0,434;48522,038
 651,00; 5208,382;    3,312;49018,126
 652,00; 4964,546;    2,491;48531,035
 653,00; 5123,338;    0,635;48870,640
 654,00; 5127,233;    0,401;48778,588
 655,00; 5100,754;   -0,224;49845,531
 656,00; 4851,034;   -0,043;55463,470
 657,00; 5105,313;    0,637;56631,300
 658,00; 5182,996;    8,040;49246,714
 659,00; 5313,232;    2,697;49158,694
 660,00; 5228,922;    2,498;48768,216
 661,00; 5379,376;    4,144;48814,878
 662,00; 5107,493;    5,911;48876,194
 663,00; 5275,310;    3,329;48702,559
 664,00; 5340,286;    1,404;48892,247
 665,00; 5281,761;    2,870;49183,260
 666,00; 5200,942;    1,339;49689,752
 667,00; 5263,851;    2,657;49188,088
 668,00; 5576,449;    2,678;49895,399
 669,00; 5254,789;    3,936;49712,233
 670,00; 5583,384;    2,760;50304,498
 671,00; 5308,651;    0,201;50279,333
 672,00; 5311,837;    6,155;50457,989
 673,00; 5237,622;    6,194;50480,294
 674,00; 5469,977;    6,817;51278,567
 675,00; 5483,442;    4,144;50519,404
 676,00; 5325,904;    4,146;51341,541
 677,00; 5269,327;    5,625;50461,849
 678,00; 5359,932;    1,109;50993,719
 679,00; 5114,055;    4,677;50473,464
 680,00; 5421,129;    4,174;50803,425
 681,00; 5192,526;    0,235;49968,370
 682,00; 5156,038;    0,662;50400,417
 683,00; 5236,619;    2,125;49930,562
 684,00; 5231,627;    7,792;49692,460
 685,00; 5291,736;    3,155;49829,487
 686,00; 5138,658;    5,728;49799,843
 687,00; 5183,906;    2,544;50213,077
 688,00; 5108,408;    5,236;49460,159
 689,00; 5330,358;    3,807;50051,820
 690,00; 5162,749;   -2,713;49086,613
 691,00; 5519,847;    5,767;50208,881
 692,00; 5250,404;    8,461;49553,000
 693,00; 5492,486;   -4,389;49815,210
 694,00; 5392,115;   -4,831;49597,372
 695,00; 5252,806;    1,650;49860,159
 696,00; 5180,085;    0,391;49573,614
 697,00; 5306,298;    3,312;50198,054
 698,00; 5230,790;    5,182;49775,512
 699,00; 5339,113;    1,389;49993,374
 700,00; 5126,329;    5,814;50249,553
 701,00; 5232,092;   -6,151;49671,834
 702,00; 5253,085;   24,422;50178,262
 703,00; 5336,589;    1,372;49507,536
 704,00; 5397,237;    2,128;49640,561
 705,00; 5173,366;    2,489;49545,116
 706,00; 5242,712;    6,002;49614,926
 707,00; 5137,156;    5,496;49508,597
 708,00; 5079,861;    0,281;49185,260
 709,00; 5111,592;    0,928;48762,067
 710,00; 5018,503;    0,257;48784,377
 711,00; 5430,595;    2,116;48442,609
 712,00; 5247,220;    2,398;48379,045
 713,00; 5257,435;    3,319;48124,926
 714,00; 5214,393;    3,323;47788,560
 715,00; 5228,695;    2,670;47352,499
 716,00; 5357,990;    1,001;47327,557
 717,00; 5480,622;   -0,767;47075,032
 718,00; 5441,317;    4,123;46231,429
 719,00; 5230,217;    4,611;46379,970
 720,00; 5234,680;    5,204;45934,552
 721,00; 5220,795;    5,484;46184,420
 722,00; 5072,386;   -1,745;45333,735
 723,00; 5271,550;   -4,147;45312,754
 724,00; 5258,165;    1,669;45384,225
 725,00; 5136,194;    3,052;45169,462
 726,00; 5041,016;   -1,233;45215,307
 727,00; 5108,660;    4,459;45402,216
 728,00; 4879,783;    3,743;45198,493
 729,00; 4911,482;   -0,075;45036,927
 730,00; 4934,081;    2,884;45281,836
 731,00; 4753,998;    2,623;45243,883
 732,00; 4946,790;    9,943;45542,623
 733,00; 4890,354;   -1,006;45407,017
 734,00; 4763,936;   -3,252;45594,318
 735,00; 4699,405;   -1,722;45662,838
 736,00; 5135,325;    6,782;45648,534
 737,00; 4725,981;    7,536;45893,661
 738,00; 4836,608;    8,522;45643,223
 739,00; 4981,751;    7,767;45171,118
 740,00; 4815,084;    2,215;45144,134
 741,00; 4589,010;    3,690;45207,829
 742,00; 4971,929;    4,659;45004,046
 743,00; 4778,388;    5,013;44853,548
 744,00; 4719,440;    1,821;44322,740
 745,00; 4624,256;    7,429;44563,896
 746,00; 4554,525;    1,159;44189,251
 747,00; 4706,196;    8,505;43951,240
 748,00; 4606,452;    7,888;43273,005
 749,00; 4697,927;    2,018;43377,164
 750,00; 4672,818;    3,416;43159,180
 751,00; 4565,041;    4,206;42515,226
 752,00; 4584,082;    5,343;42079,535
 753,00; 4336,859;    5,282;41340,851
 754,00; 4253,556;    2,805;41319,095
 755,00; 4202,765;    3,716;40276,796
 756,00; 4296,466;    6,277;40243,016
 757,00; 3949,102;    3,754;39576,232
 758,00; 4036,194;    7,402;39704,427
 759,00; 3935,329;    7,962;39000,068
 760,00; 4100,079;    0,977;38547,462
 761,00; 3946,109;    4,183;38153,991
 762,00; 3990,913;    3,050;37786,002
 763,00; 3844,447;    5,642;37426,534
 764,00; 3926,524;    1,250;37181,135
 765,00; 3910,418;   -0,754;37171,447
 766,00; 3866,439;    5,452;36472,322
 767,00; 3841,698;    4,444;36253,979
 768,00; 3764,768;    1,429;36376,863
 769,00; 3783,260;   -1,182;36175,867
 770,00; 3666,944;   -1,209;35848,783
 771,00; 3891,293;   10,193;36034,098
 772,00; 3807,658;    1,801;35733,893
 773,00; 3861,993;    6,087;35890,631
 774,00; 3840,966;    5,606;35598,640
 775,00; 3635,939;    1,026;35517,664
 776,00; 3721,021;    6,113;35840,170
 777,00; 3507,681;    3,884;35458,882
 778,00; 3832,397;    1,515;35524,560
 779,00; 3860,507;    0,783;35476,436
 780,00; 3732,548;    4,404;35814,053
 781,00; 3698,159;    3,630;35835,393
 782,00; 3768,170;   -0,328;36141,052
 783,00; 3534,675;    0,491;36275,895
 784,00; 3806,139;    7,288;36455,008
 785,00; 3667,869;    1,558;36454,477
 786,00; 3579,517;    4,119;36609,201
 787,00; 3776,475;    3,715;36901,355
 788,00; 3889,607;    4,785;36724,684
 789,00; 3596,343;    1,940;36884,133
 790,00; 3598,990;    2,064;36639,539
 791,00; 3627,650;    5,108;37085,536
 792,00; 3710,606;    6,224;36549,884
 793,00; 3589,147;    6,098;36684,174
 794,00; 3696,573;    5,712;36363,303
 795,00; 3636,836;   -0,945;36473,159
 796,00; 3715,961;    0,387;36404,456
 797,00; 3593,311;    2,339;36042,595
 798,00; 3629,814;   -3,596;35780,798
 799,00; 3776,523;    4,808;35420,531
 800,00; 3521,266;    4,171;35284,582
 801,00; 3411,136;    5,810;34440,825
 802,00; 3421,152;   -2,867;34443,663
 803,00; 3468,537;    2,139;34307,753
 804,00; 3354,513;    2,001;34113,270
 805,00; 3277,993;    2,988;33636,256
 806,00; 3238,064;   -0,298;33060,784
 807,00; 3224,294;   -0,155;33033,672
 808,00; 3296,248;    4,308;32711,975
 809,00; 3279,254;    8,518;32425,260
 810,00; 3239,828;    3,259;32035,332
 811,00; 3248,459;    1,769;32125,824
 812,00; 3227,408;    1,863;31797,090
 813,00; 3217,521;    1,186;31540,208
 814,00; 3308,290;    5,133;31671,525
 815,00; 3282,046;    3,829;31296,928
 816,00; 3212,574;    3,106;31108,752
 817,00; 3177,651;    2,016;30605,363
 818,00; 3204,819;    4,338;30997,159
 819,00; 3193,319;    3,089;30405,419
 820,00; 3204,677;    7,159;30148,499
 821,00; 3221,788;    2,660;30164,743
 822,00; 3086,541;    0,408;29768,480
 823,00; 3050,957;    6,590;29524,454
 824,00; 3052,575;   -2,013;29316,800
 825,00; 3009,477;    7,821;29135,353
 826,00; 3040,018;    4,077;28735,114
 827,00; 3005,155;    6,341;28999,641
 828,00; 2933,333;    3,056;28742,113
 829,00; 2998,484;    0,872;28675,432
 830,00; 2987,569;    2,746;28333,158
 831,00; 2856,593;    2,474;28399,951
 832,00; 2927,776;    0,378;28376,515
 833,00; 2887,365;    8,963;28079,363
 834,00; 2884,650;    0,427;28282,931
 835,00; 2882,580;    3,908;28028,234
 836,00; 2799,913;    0,164;28263,872
 837,00; 2836,889;    4,288;27715,610
 838,00; 2719,085;    5,189;27993,888
 839,00; 2758,149;    2,788;27779,555
 840,00; 2795,146;    5,828;27701,236
 841,00; 2764,465;    1,944;27736,924
 842,00; 2850,593;    1,551;27678,304
 843,00; 2826,723;    2,396;27753,145
 844,00; 2651,812;    2,294;27398,003
 845,00; 2628,270;    2,821;27621,076
 846,00; 2624,527;    3,304;27366,872
 847,00; 2700,153;    1,994;27096,838
 848,00; 2732,080;    5,303;27264,237
 849,00; 2694,725;    3,693;26825,401
 850,00; 2624,377;    3,226;26883,147
 851,00; 2623,939;   -0,704;26469,412
 852,00; 2700,598;    0,601;26592,544
 853,00; 2540,144;    4,262;26031,020
 854,00; 2655,280;   -0,040;26191,045
 855,00; 2523,798;    2,968;25751,538
 856,00; 2534,479;    3,760;25443,997
 857,00; 2478,551;    1,498;25275,101
 858,00; 2541,257;    1,043;24925,711
 859,00; 2522,240;   -1,107;24959,569
 860,00; 2375,072;    9,451;24400,622
 861,00; 2475,816;    5,719;24441,330
 862,00; 2300,895;    0,653;23886,421
 863,00; 2310,025;    2,847;23555,331
 864,00; 2328,051;   -0,398;23319,195
 865,00; 2194,541;    3,187;22848,051
 866,00; 2238,789;    4,585;22877,885
 867,00; 2155,739;    0,949;22519,785
 868,00; 2233,587;   -4,376;22195,715
 869,00; 2236,570;    0,732;21534,061
 870,00; 2032,364;   -2,655;21645,564
 871,00; 2046,010;    5,622;21223,098
 872,00; 2120,899;    3,223;20818,920
 873,00; 2132,479;    4,779;20710,818
 874,00; 2072,394;   -0,088;20160,841
 875,00; 1994,319;    3,700;20174,218
 876,00; 1969,620;    1,890;19757,687
 877,00; 1962,361;    4,817;19629,732
 878,00; 1969,871;    9,605;19354,176
 879,00; 1922,124;    2,998;19113,723
 880,00; 1946,888;   -1,484;18811,927
 881,00; 1828,466;   56,385;18802,218
 882,00; 1872,281;   -2,872;18731,867
 883,00; 1811,039;    0,959;18789,016
 884,00; 1773,059;    9,259;18731,407
 885,00; 1797,344;    5,312;18705,487
 886,00; 1812,702;    2,379;18851,221
 887,00; 1830,815;   -0,006;19028,694
 888,00; 1784,466;    6,616;19049,508
 889,00; 1917,166;   -2,783;19456,452
 890,00; 1934,416;    2,266;19130,202
 891,00; 1927,978;    4,306;19317,597
 892,00; 1855,395;    7,445;19339,873
 893,00; 1809,534;    2,059;19376,474
 894,00; 1968,706;    7,355;19579,345
 895,00; 1928,287;    3,550;19578,151
 896,00; 1919,010;    0,691;19794,546
 897,00; 1926,995;    1,859;19521,503
 898,00; 1981,758;    0,633;19497,863
 899,00; 1939,336;    1,597;19606,431
 900,00; 1866,009;    4,871;19487,794
 901,00; 1921,104;    0,429;19487,021
 902,00; 1884,745;    1,193;19482,143
 903,00; 1932,751;    5,184;19496,932
 904,00; 1888,300;    4,196;19361,232
 905,00; 1869,825;    3,040;19177,774
 906,00; 1802,861;    2,088;19183,469
 907,00; 1787,070;    0,821;18880,744
 908,00; 1901,058;    2,884;18753,880
 909,00; 1836,882;    3,956;18443,324
 910,00; 1733,889;    4,127;18496,056
 911,00; 1719,377;    0,490;18159,364
 912,00; 1684,660;    3,369;18072,057
 913,00; 1713,811;   -1,364;17948,099
 914,00; 1792,128;    3,961;17512,267
 915,00; 1670,974;    0,781;17686,300
 916,00; 1678,453;    1,643;17283,177
 917,00; 1753,545;    4,271;17033,662
 918,00; 1685,176;    0,666;16796,326
 919,00; 1525,632;    2,611;16545,951
 920,00; 1659,874;    5,666;16356,050
 921,00; 1605,113;    5,856;16109,987
 922,00; 1505,738;    8,668;15895,350
 923,00; 1578,562;    2,391;15548,135
 924,00; 1631,088;    3,682;15312,339
 925,00; 1531,107;    3,474;14994,079
 926,00; 1476,384;    3,483;14609,696
 927,00; 1488,151;    4,173;14447,626
 928,00; 1393,911;    4,918;13910,609
 929,00; 1376,340;    3,297;13868,985
 930,00; 1402,004;    5,804;13383,963
 931,00; 1362,431;    1,265;13092,079
 932,00; 1361,586;   -2,047;12825,786
 933,00; 1282,645;    0,686;12357,902
 934,00; 1376,293;    3,707;12086,283
 935,00; 1350,079;   -0,258;11287,042
 936,00; 1296,821;    0,000;10652,333
 937,00; 1310,596;    0,621; 9968,240
 938,00; 1282,707;    3,722; 9160,350
 939,00; 1259,703;   -1,002; 8456,071
 940,00; 1360,130;    6,402; 7698,365
 941,00; 1154,334;    1,931; 7372,742
 942,00; 1173,338;    4,238; 7012,068
 943,00; 1208,465;    3,338; 6750,658
 944,00; 1185,245;    6,158; 6704,312
 945,00; 1153,701;    3,383; 6645,972
 946,00; 1121,042;    1,673; 6750,353
 947,00; 1075,490;    2,045; 6684,124
 948,00; 1116,172;    3,077; 6859,087
 949,00; 1101,185;   -0,724; 6905,299
 950,00; 1032,379;    4,303; 6970,891
 951,00; 1026,229;    3,734; 7242,058
 952,00;  949,020;    1,565; 7155,168
 953,00; 1038,622;    1,470; 7528,332
 954,00; 1035,401;    3,194; 7534,413
 955,00; 1022,156;    4,253; 7624,742
 956,00; 1016,194;   -3,211; 7670,394
 957,00; 1022,696;    6,497; 7760,754
 958,00;  965,932;    2,368; 7982,426
 959,00;  908,632;   -0,842; 7792,457
 960,00;  938,403;    1,568; 7892,791
 961,00;  982,876;    3,466; 7960,323
 962,00;  903,372;    3,733; 8009,871
 963,00;  917,570;   -1,271; 8056,483
 964,00;  879,543;    2,504; 7940,252
 965,00;  888,649;    0,979; 8034,092
 966,00;  873,680;    5,138; 7920,691
 967,00;  814,570;    4,504; 7920,096
 968,00;  857,420;    1,336; 7911,080
 969,00;  866,249;    3,643; 7810,097
 970,00;  819,193;    4,112; 7812,516
 971,00;  800,097;    0,975; 7822,167
 972,00;  820,659;    2,244; 7703,449
 973,00;  803,769;    3,829; 7741,144
 974,00;  774,357;    3,528; 7606,739
 975,00;  792,728;    9,840; 7616,591
 976,00;  734,300;    3,540; 7491,415
 977,00;  767,887;    1,158; 7433,090
 978,00;  739,372;    3,851; 7390,934
 979,00;  679,399;    5,284; 7234,839
 980,00;  740,858;    3,377; 7221,538
 981,00;  662,517;    4,103; 7101,498
 982,00;  659,672;    5,376; 7030,563
 983,00;  672,478;    0,185; 6964,459
 984,00;  674,194;    1,903; 6791,681
 985,00;  712,814;   -0,735; 6884,786
 986,00;  604,157;    3,984; 6535,673
 987,00;  667,540;    4,619; 6531,601
 988,00;  632,000;    7,786; 6458,635
 989,00;  613,531;    3,408; 6330,281
 990,00;  623,439;    7,383; 6200,638
 991,00;  590,451;    3,803; 6044,263
 992,00;  590,536;    4,066; 5979,043
 993,00;  548,205;    2,968; 5879,213
 994,00;  534,872;    2,697; 5837,352
 995,00;  554,747;    4,746; 5672,640
 996,00;  518,674;    4,696; 5479,321
 997,00;  501,927;    4,116; 5421,606
 998,00;  505,180;    2,840; 5304,811
 999,00;  486,729;   -2,846; 5076,878
1000,00;  494,517;   -0,401; 5073,507
1001,00;  495,456;    2,413; 4934,566
1002,00;  461,117;    2,721; 4771,740
1003,00;  448,564;    3,193; 4659,475
1004,00;  446,270;    3,318; 4567,170
1005,00;  406,787;    2,971; 4448,672
1006,00;  402,442;    6,215; 4290,081
1007,00;  424,572;    3,138; 4197,557
1008,00;  424,574;    2,955; 4092,298
1009,00;  379,327;    5,693; 3950,825
1010,00;  365,804;    3,239; 3976,646
1011,00;  378,477;    4,341; 3852,594
1012,00;  380,462;    4,219; 3822,411
1013,00;  372,911;    3,989; 3796,641
1014,00;  373,974;    1,826; 3774,270
1015,00;  367,025;    5,844; 3813,325
1016,00;  393,871;    6,027; 3750,420
1017,00;  380,342;    2,137; 3730,661
1018,00;  400,302;    0,792; 3654,573
1019,00;  376,527;    0,720; 3574,519
1020,00;  361,364;    6,298; 3499,290
1021,00;  322,024;    7,873; 3310,743
1022,00;  343,191;    4,791; 3253,565
1023,00;  351,130;    2,559; 3145,936
1024,00;  315,427;    1,850; 3073,108
1025,00;  313,323;    0,314; 2982,295
1026,00;  285,356;    0,408; 2842,767
1027,00;  296,706;    3,243; 2770,938
1028,00;  279,622;    3,014; 2630,616
1029,00;  259,522;    4,191; 2552,565
1030,00;  238,665;    3,906; 2458,928
1031,00;  249,121;    2,348; 2376,469
1032,00;  242,172;   -0,189; 2339,266
1033,00;  227,540;    1,268; 2230,116
1034,00;  206,032;    9,510; 2165,551
1035,00;  212,141;    1,348; 2093,223
1036,00;  220,939;    3,156; 2021,790
1037,00;  202,819;    1,820; 1948,954
1038,00;  183,009;    3,195; 1904,856
1039,00;  194,997;    0,630; 1843,503
1040,00;  192,176;    0,761; 1762,364
1041,00;  168,316;    2,140; 1731,450
1042,00;  163,826;    4,696; 1670,515
1043,00;  169,464;    3,250; 1609,635
1044,00;  155,763;    6,727; 1568,765
1045,00;  157,085;    5,127; 1523,020
1046,00;  144,335;    6,818; 1478,453
1047,00;  157,954;    1,683; 1429,356
1048,00;  158,549;    5,404; 1394,443
1049,00;  144,577;    4,401; 1342,936
1050,00;  126,506;    2,565; 1315,683
1051,00;  137,355;    2,439; 1277,001
1052,00;  123,747;    4,119; 1231,814
1053,00;  126,875;    5,556; 1222,191
1054,00;  131,582;    4,484; 1197,243
1055,00;  125,913;   -7,048; 1156,731
1056,00;  108,136;   23,212; 1136,129
1057,00;  111,681;    1,466; 1075,188
1058,00;  100,513;    1,519; 1064,890
1059,00;  109,194;   -1,981; 1025,328
1060,00;  100,032;    4,271;  991,931
1061,00;  104,126;    4,827;  969,708
1062,00;  113,576;    5,977;  948,920
1063,00;   88,067;    5,065;  912,247
1064,00;   89,154;    6,614;  896,884
1065,00;   85,934;    2,581;  859,071
1066,00;   95,214;    3,721;  850,201
1067,00;   89,351;    1,855;  833,671
1068,00;   83,444;    4,291;  803,982
1069,00;   86,590;    0,971;  800,529
1070,00;   76,909;   -6,648;  781,254
1071,00;   75,734;    0,465;  784,165
1072,00;   77,300;    1,958;  755,231
1073,00;   81,402;   -1,788;  743,175
1074,00;   85,691;    9,582;  722,567
1075,00;   68,398;    4,458;  707,139
1076,00;   70,657;    5,820;  694,732
1077,00;   62,984;   -1,830;  672,129
1078,00;   70,566;    7,273;  667,702
1079,00;   75,329;    9,890;  658,769
1080,00;   64,926;    0,934;  642,278
1081,00;   72,569;    3,234;  627,163
1082,00;   65,711;    5,023;  601,046
1083,00;   63,304;    1,785;  571,290
1084,00;   64,302;    0,679;  605,954
1085,00;   62,271;    3,167;  585,327
1086,00;   62,567;    2,699;  555,308
1087,00;   63,743;    3,714;  557,223
1088,00;   62,827;    5,041;  527,679
1089,00;   57,981;    1,571;  504,374
1090,00;   51,608;    1,848;  495,711
1091,00;   52,873;   -2,199;  496,580
1092,00;   43,675;    8,707;  484,457
1093,00;   50,407;    4,808;  462,186
1094,00;   46,287;    2,264;  452,215
1095,00;   51,426;    3,360;  435,345
1096,00;   49,369;    3,219;  424,386
1097,00;   41,949;    3,403;  414,662
1098,00;   45,869;    0,315;  403,777
1099,00;   Not Available
1100,00;   Not Available

