
Integration time [ms]:   2,000
Averaging Nr. [scans]: 30
Smoothing Nr. [pixels]: 0
Data measured with spectrometer [name]: 0901140U1
Wave   ;Sample   ;Dark     ;Reference;Scope
[nm]   ;[counts] ;[counts] ;[counts] 

 260,00;   Not Available
 261,00;   Not Available
 262,00;   Not Available
 263,00;   Not Available
 264,00;   Not Available
 265,00;   Not Available
 266,00;   Not Available
 267,00;   Not Available
 268,00;   Not Available
 269,00;   Not Available
 270,00;   Not Available
 271,00;   Not Available
 272,00;   Not Available
 273,00;   Not Available
 274,00;   Not Available
 275,00;   Not Available
 276,00;   Not Available
 277,00;   Not Available
 278,00;   Not Available
 279,00;   Not Available
 280,00;   Not Available
 281,00;   Not Available
 282,00;   Not Available
 283,00;   Not Available
 284,00;   Not Available
 285,00;   Not Available
 286,00;   Not Available
 287,00;   Not Available
 288,00;   Not Available
 289,00;   Not Available
 290,00;   Not Available
 291,00;   Not Available
 292,00;   Not Available
 293,00;   Not Available
 294,00;   Not Available
 295,00;   Not Available
 296,00;   Not Available
 297,00;   Not Available
 298,00;   Not Available
 299,00;   Not Available
 300,00;   Not Available
 301,00;   Not Available
 302,00;   Not Available
 303,00;   Not Available
 304,00;   Not Available
 305,00;   Not Available
 306,00;   Not Available
 307,00;   Not Available
 308,00;   Not Available
 309,00;   Not Available
 310,00;   Not Available
 311,00;   Not Available
 312,00;   Not Available
 313,00;   Not Available
 314,00;   Not Available
 315,00;   Not Available
 316,00;   Not Available
 317,00;   Not Available
 318,00;   Not Available
 319,00;   Not Available
 320,00;   Not Available
 321,00;   Not Available
 322,00;   Not Available
 323,00;   Not Available
 324,00;   Not Available
 325,00;   Not Available
 326,00;   Not Available
 327,00;   Not Available
 328,00;   Not Available
 329,00;   Not Available
 330,00;   Not Available
 331,00;   Not Available
 332,00;   Not Available
 333,00;   Not Available
 334,00;   Not Available
 335,00;   Not Available
 336,00;   Not Available
 337,00;   Not Available
 338,00;   Not Available
 339,00;   Not Available
 340,00;   Not Available
 341,00;   Not Available
 342,00;   Not Available
 343,00;   42,864;   -0,042; 5308,653
 344,00;   45,866;    3,248; 5435,737
 345,00;   42,446;   -0,687; 5586,839
 346,00;   48,601;   -1,316; 5899,019
 347,00;   50,220;    0,583; 6169,222
 348,00;   48,446;    4,643; 6334,159
 349,00;   52,318;    1,589; 6593,907
 350,00;   40,769;   -0,161; 6639,549
 351,00;   50,016;   -3,740; 6811,936
 352,00;   40,440;    4,863; 6805,536
 353,00;   53,443;    3,098; 6722,142
 354,00;   48,930;   11,456; 6660,788
 355,00;   47,932;   -0,317; 6859,957
 356,00;   46,234;    3,085; 7013,905
 357,00;   44,169;    1,773; 7062,159
 358,00;   51,257;   -1,850; 7139,153
 359,00;   46,367;    5,362; 7172,313
 360,00;   56,817;   -0,945; 7184,622
 361,00;   55,135;    4,640; 7271,278
 362,00;   59,199;    1,986; 7267,726
 363,00;   41,447;   -1,653; 7353,291
 364,00;   57,262;    3,267; 7347,788
 365,00;   59,514;   -2,526; 7376,368
 366,00;   55,700;    5,423; 7425,625
 367,00;   54,990;    1,077; 7691,767
 368,00;   54,561;   -0,660; 7901,408
 369,00;   56,438;   -2,295; 7832,170
 370,00;   70,848;    0,997; 8026,802
 371,00;   41,684;    0,108; 7804,205
 372,00;   48,422;   -0,688; 7872,014
 373,00;   57,067;    1,758; 7907,641
 374,00;   63,064;    0,283; 7977,145
 375,00;   53,002;    0,361; 7791,377
 376,00;   57,639;    1,476; 7795,045
 377,00;   50,190;    4,076; 7797,232
 378,00;   54,139;    4,427; 8369,540
 379,00;   63,378;    6,374; 8415,530
 380,00;   57,728;    4,474; 8362,086
 381,00;   61,227;    8,202; 8145,759
 382,00;   55,964;    8,451; 8040,339
 383,00;   51,240;    3,121; 7942,856
 384,00;   55,072;    2,617; 7877,278
 385,00;   66,494;    1,733; 7830,965
 386,00;   47,422;    3,665; 8065,170
 387,00;   67,236;    7,203; 8047,448
 388,00;   55,455;    4,292; 8521,671
 389,00;   52,544;    3,476; 8246,824
 390,00;   45,836;   -3,709; 8205,581
 391,00;   52,664;    0,076; 7955,041
 392,00;   55,764;    7,527; 8241,355
 393,00;   54,132;    1,829; 8365,932
 394,00;   61,132;    9,557; 7975,822
 395,00;   54,356;   -2,359; 8086,842
 396,00;   54,442;    5,159; 8008,916
 397,00;   49,041;    7,819; 8328,379
 398,00;   63,919;    0,294; 8563,734
 399,00;   54,322;    6,943; 8852,164
 400,00;   52,212;    5,366; 8319,759
 401,00;   60,953;    3,627; 7747,729
 402,00;   52,269;    1,281; 7571,799
 403,00;   52,070;    6,363; 7412,172
 404,00;   54,007;    5,728; 7669,434
 405,00;   51,778;    1,982; 7609,302
 406,00;   61,091;    0,823; 7620,879
 407,00;   58,008;    6,431; 7442,482
 408,00;   55,606;    2,157; 7481,070
 409,00;   58,654;   -0,802; 7398,022
 410,00;   60,719;    2,440; 7427,271
 411,00;   57,751;    3,476; 7405,718
 412,00;   61,577;    6,473; 7360,099
 413,00;   66,773;    2,681; 7486,115
 414,00;   55,392;    2,528; 7927,028
 415,00;   68,061;    5,374; 7686,086
 416,00;   65,358;    0,564; 7494,637
 417,00;   58,366;    1,319; 7471,791
 418,00;   63,526;    3,676; 7560,669
 419,00;   58,763;    4,244; 7755,964
 420,00;   69,213;    3,001; 8012,610
 421,00;   54,304;    6,532; 8465,100
 422,00;   60,498;    6,996; 9161,408
 423,00;   56,571;   -2,817; 9191,825
 424,00;   53,843;   -0,062; 9271,484
 425,00;   60,331;    5,149; 8852,789
 426,00;   65,799;    2,015; 8801,746
 427,00;   49,804;    2,890; 8997,735
 428,00;   62,663;    2,147; 9554,482
 429,00;   59,403;    2,279; 9685,289
 430,00;   57,440;    6,943;10238,988
 431,00;   50,122;    2,435;10520,281
 432,00;   63,851;    1,956; 9940,647
 433,00;   67,431;    0,383; 9535,601
 434,00;   59,662;    3,284; 9904,623
 435,00;   59,798;    1,111;10198,457
 436,00;   61,983;    3,710;10046,201
 437,00;   62,698;    2,990;10107,762
 438,00;   63,847;   -1,790;10187,177
 439,00;   74,534;    0,801; 9930,316
 440,00;   63,368;    4,995; 9843,439
 441,00;   59,456;    4,683;10147,359
 442,00;   57,415;    1,708; 9880,016
 443,00;   63,979;    4,022; 9609,006
 444,00;   54,778;    4,970; 8842,917
 445,00;   62,926;    3,642; 8717,773
 446,00;   60,507;    0,294; 9108,867
 447,00;   57,180;    3,214; 9446,540
 448,00;   61,119;    1,678;10103,260
 449,00;   55,267;    4,529;10864,071
 450,00;   58,343;    0,285;11428,142
 451,00;   62,983;   -1,116;11859,538
 452,00;   60,713;    1,252;11920,851
 453,00;   69,635;    3,434;12365,451
 454,00;   66,027;   -1,505;12348,034
 455,00;   57,836;    4,028;12907,695
 456,00;   60,564;    6,445;13043,195
 457,00;   61,575;    3,011;13154,216
 458,00;   56,256;    3,227;13466,441
 459,00;   71,179;    1,747;13925,955
 460,00;   76,003;    2,647;13797,224
 461,00;   68,732;    4,310;13717,760
 462,00;   57,562;    2,955;13603,510
 463,00;   68,700;    1,672;13405,965
 464,00;   62,989;    2,324;14202,312
 465,00;   62,793;    6,023;14951,125
 466,00;   69,866;    2,250;15131,470
 467,00;   64,990;   -3,115;14825,442
 468,00;   69,215;    1,957;14679,288
 469,00;   67,312;   -1,137;14474,279
 470,00;   63,676;   -1,581;14051,918
 471,00;   81,685;    1,502;13976,505
 472,00;   77,726;    1,868;14369,674
 473,00;   76,079;   -0,932;14937,848
 474,00;   81,320;    1,334;15444,499
 475,00;   92,380;   -1,157;15589,378
 476,00;   96,328;    6,891;16010,549
 477,00;   92,741;   -2,285;15962,462
 478,00;  118,646;    3,104;16332,794
 479,00;  118,649;    5,322;16686,910
 480,00;  127,939;    0,553;17099,205
 481,00;  147,670;    5,806;17484,386
 482,00;  176,251;    3,372;17809,137
 483,00;  214,000;    2,125;17966,667
 484,00;  233,675;   -3,126;18556,171
 485,00;  283,484;    1,445;22468,907
 486,00;  326,236;    0,811;31549,406
 487,00;  360,559;   -1,395;31339,104
 488,00;  435,183;    6,628;20056,548
 489,00;  492,613;    3,347;18925,110
 490,00;  543,317;    5,383;19158,655
 491,00;  641,839;    1,072;19219,379
 492,00;  715,991;    0,479;19039,717
 493,00;  790,446;    4,369;19073,019
 494,00;  888,853;   -1,705;19310,317
 495,00;  974,744;   -1,691;18904,344
 496,00; 1025,041;    5,041;19320,323
 497,00; 1131,254;    0,713;19521,951
 498,00; 1208,702;    6,657;18975,697
 499,00; 1248,167;    0,021;19205,823
 500,00; 1311,603;   -0,637;19409,174
 501,00; 1417,940;    6,167;19400,656
 502,00; 1480,390;    2,731;19825,945
 503,00; 1523,854;    3,819;19852,170
 504,00; 1669,328;    6,267;19545,973
 505,00; 1659,547;    0,363;19039,183
 506,00; 1704,093;    3,055;19003,583
 507,00; 1785,207;    0,945;18811,889
 508,00; 1872,900;   -1,997;18717,782
 509,00; 1910,664;   -1,410;18586,254
 510,00; 2013,317;    3,725;18561,556
 511,00; 2059,407;    2,462;18666,460
 512,00; 2071,632;    1,534;18630,675
 513,00; 2202,246;    9,685;18387,922
 514,00; 2330,764;    6,780;18242,142
 515,00; 2336,953;    5,326;17622,089
 516,00; 2445,561;    1,225;17554,524
 517,00; 2573,198;    1,162;17230,740
 518,00; 2619,366;   22,620;17035,085
 519,00; 2734,019;    4,323;16742,225
 520,00; 2756,461;    3,130;16657,887
 521,00; 2960,501;    8,944;16327,533
 522,00; 2941,287;    7,491;16240,052
 523,00; 2984,072;   -2,718;16176,654
 524,00; 3020,616;   -4,601;16443,395
 525,00; 3083,334;    4,013;16357,991
 526,00; 3304,130;    8,007;16480,530
 527,00; 3205,806;    6,683;16252,598
 528,00; 3508,090;    4,062;16653,785
 529,00; 3537,748;    4,644;16864,332
 530,00; 3488,747;   -0,177;17253,771
 531,00; 3640,546;   -0,185;17030,089
 532,00; 3790,491;    1,673;17490,817
 533,00; 3725,521;    0,578;18275,787
 534,00; 3871,930;    6,339;19191,745
 535,00; 3903,142;   -0,042;19583,412
 536,00; 4231,565;   -5,456;19801,991
 537,00; 4196,470;    3,493;19468,151
 538,00; 4176,105;    3,718;19791,057
 539,00; 4255,129;    7,833;19953,273
 540,00; 4394,190;    2,284;19774,906
 541,00; 4419,190;    4,635;19327,634
 542,00; 4657,746;    0,439;19376,597
 543,00; 4379,197;    1,270;19258,235
 544,00; 4738,432;   -0,154;19421,154
 545,00; 4573,310;    6,065;19569,175
 546,00; 4883,275;   -1,895;19720,234
 547,00; 4662,292;    0,648;19926,118
 548,00; 4885,068;    0,086;20885,498
 549,00; 5035,854;   -0,038;21048,594
 550,00; 5016,362;    4,478;20441,229
 551,00; 4941,102;    0,368;20291,522
 552,00; 5038,593;   -0,605;20750,020
 553,00; 4873,209;    6,332;21136,333
 554,00; 4899,842;    3,933;21175,515
 555,00; 5081,852;    2,375;21441,113
 556,00; 5022,486;    0,634;22267,749
 557,00; 5164,899;    1,533;22532,690
 558,00; 5282,543;    4,612;23078,812
 559,00; 5234,313;    3,711;23491,301
 560,00; 5514,979;   -1,764;24464,614
 561,00; 5387,438;    6,008;25434,026
 562,00; 5351,236;    2,368;25900,670
 563,00; 5303,644;   -1,849;26285,369
 564,00; 5476,419;   11,938;26912,675
 565,00; 5670,422;    5,430;27477,788
 566,00; 5714,050;    2,382;27874,917
 567,00; 5813,297;    3,512;28666,529
 568,00; 5629,688;    2,958;29770,636
 569,00; 5760,906;   -0,522;31102,097
 570,00; 5974,466;    0,188;32978,253
 571,00; 6088,135;    2,910;34369,629
 572,00; 5946,153;    3,662;35240,696
 573,00; 6067,619;   -1,779;35774,339
 574,00; 6013,018;    2,880;36874,327
 575,00; 6170,995;    0,981;37501,588
 576,00; 6035,739;    7,072;37331,900
 577,00; 5961,534;    6,284;37778,065
 578,00; 5823,328;   -2,775;38695,355
 579,00; 5979,900;    6,153;38248,724
 580,00; 5920,384;    4,260;37071,396
 581,00; 5544,630;    5,770;38578,649
 582,00; 5654,388;    2,590;39207,020
 583,00; 5805,719;    5,177;37470,977
 584,00; 5866,188;    5,213;35636,726
 585,00; 5765,809;    2,963;36323,937
 586,00; 5749,200;    0,225;36611,662
 587,00; 6007,438;    2,959;36328,456
 588,00; 5993,269;    7,420;36086,156
 589,00; 6224,625;    5,812;35896,728
 590,00; 6059,561;    5,054;35650,694
 591,00; 6190,707;    8,888;35815,884
 592,00; 6212,769;    6,022;36089,818
 593,00; 6411,050;   -0,248;36859,857
 594,00; 6246,536;   -1,801;36792,130
 595,00; 6325,788;    3,127;36973,920
 596,00; 6109,682;    0,218;36879,888
 597,00; 6258,291;    6,610;37328,150
 598,00; 6413,204;    0,515;37101,256
 599,00; 6229,831;    1,860;37353,732
 600,00; 6263,074;    5,298;37386,589
 601,00; 6460,064;    2,013;37851,726
 602,00; 6469,483;    0,092;36887,099
 603,00; 6327,030;    0,589;37382,548
 604,00; 6269,042;    3,939;36696,808
 605,00; 6493,088;    4,699;36721,164
 606,00; 6272,649;    1,771;36169,331
 607,00; 6308,017;    4,815;36331,526
 608,00; 5947,426;    7,694;35668,702
 609,00; 5957,204;   -1,222;35820,190
 610,00; 5915,966;    4,886;35288,211
 611,00; 6114,120;    4,182;35331,259
 612,00; 5930,076;   -0,146;34836,154
 613,00; 5944,512;   -2,113;34671,862
 614,00; 5878,365;    0,070;34298,335
 615,00; 5941,580;    0,562;34331,296
 616,00; 5785,333;    2,960;34028,695
 617,00; 5699,319;    5,008;34144,864
 618,00; 6078,975;    2,960;34200,385
 619,00; 5727,232;    1,023;34374,462
 620,00; 5800,069;    2,619;34782,222
 621,00; 5805,045;    6,023;35152,758
 622,00; 6075,535;    0,418;35441,372
 623,00; 6131,655;    5,531;36021,990
 624,00; 6005,183;    0,388;36494,263
 625,00; 6226,427;    6,006;36262,749
 626,00; 6181,523;    1,077;36732,193
 627,00; 6118,335;    5,224;36698,499
 628,00; 6694,995;    0,370;37373,709
 629,00; 6717,336;    9,106;37579,336
 630,00; 6714,858;   -0,291;38028,031
 631,00; 6848,140;    3,879;38202,109
 632,00; 6722,750;    5,007;38990,489
 633,00; 6648,516;    0,551;39293,266
 634,00; 6804,098;    0,404;40032,573
 635,00; 7198,855;    3,114;40600,067
 636,00; 7111,511;    5,063;41558,948
 637,00; 7140,713;    2,150;41885,449
 638,00; 7258,190;    2,875;42892,711
 639,00; 7078,719;    2,905;43655,095
 640,00; 7571,069;    3,107;44176,099
 641,00; 7316,659;    4,516;44978,812
 642,00; 7797,338;    6,812;45765,159
 643,00; 7693,214;    7,026;46324,008
 644,00; 7648,317;    5,651;46714,845
 645,00; 7712,743;    0,864;47229,471
 646,00; 8153,632;    0,634;47893,808
 647,00; 7945,174;    2,331;48047,108
 648,00; 8396,598;    3,025;48312,216
 649,00; 8177,334;    4,851;48508,625
 650,00; 8283,554;    0,434;48522,038
 651,00; 8692,006;    3,312;49018,126
 652,00; 8256,663;    2,491;48531,035
 653,00; 8542,221;    0,635;48870,640
 654,00; 8557,737;    0,401;48778,588
 655,00; 8638,447;   -0,224;49845,531
 656,00; 8074,799;   -0,043;55463,470
 657,00; 8457,166;    0,637;56631,300
 658,00; 8825,662;    8,040;49246,714
 659,00; 8959,131;    2,697;49158,694
 660,00; 8683,216;    2,498;48768,216
 661,00; 9141,713;    4,144;48814,878
 662,00; 8453,151;    5,911;48876,194
 663,00; 8692,143;    3,329;48702,559
 664,00; 8939,571;    1,404;48892,247
 665,00; 8612,844;    2,870;49183,260
 666,00; 8430,472;    1,339;49689,752
 667,00; 8546,331;    2,657;49188,088
 668,00; 9117,195;    2,678;49895,399
 669,00; 8463,855;    3,936;49712,233
 670,00; 9046,443;    2,760;50304,498
 671,00; 8493,952;    0,201;50279,333
 672,00; 8508,865;    6,155;50457,989
 673,00; 8286,620;    6,194;50480,294
 674,00; 8749,688;    6,817;51278,567
 675,00; 8771,128;    4,144;50519,404
 676,00; 8359,956;    4,146;51341,541
 677,00; 8315,672;    5,625;50461,849
 678,00; 8445,041;    1,109;50993,719
 679,00; 8012,297;    4,677;50473,464
 680,00; 8507,625;    4,174;50803,425
 681,00; 8066,936;    0,235;49968,370
 682,00; 8028,582;    0,662;50400,417
 683,00; 8217,792;    2,125;49930,562
 684,00; 8137,605;    7,792;49692,460
 685,00; 8217,813;    3,155;49829,487
 686,00; 7939,687;    5,728;49799,843
 687,00; 8034,723;    2,544;50213,077
 688,00; 7906,161;    5,236;49460,159
 689,00; 8291,492;    3,807;50051,820
 690,00; 8064,857;   -2,713;49086,613
 691,00; 8563,522;    5,767;50208,881
 692,00; 8279,196;    8,461;49553,000
 693,00; 8720,786;   -4,389;49815,210
 694,00; 8569,655;   -4,831;49597,372
 695,00; 8279,291;    1,650;49860,159
 696,00; 8191,554;    0,391;49573,614
 697,00; 8495,420;    3,312;50198,054
 698,00; 8450,644;    5,182;49775,512
 699,00; 8679,441;    1,389;49993,374
 700,00; 8199,222;    5,814;50249,553
 701,00; 8492,958;   -6,151;49671,834
 702,00; 8543,626;   24,422;50178,262
 703,00; 8783,925;    1,372;49507,536
 704,00; 8894,116;    2,128;49640,561
 705,00; 8453,782;    2,489;49545,116
 706,00; 8516,212;    6,002;49614,926
 707,00; 8328,414;    5,496;49508,597
 708,00; 8234,462;    0,281;49185,260
 709,00; 8210,494;    0,928;48762,067
 710,00; 8015,354;    0,257;48784,377
 711,00; 8792,076;    2,116;48442,609
 712,00; 8354,338;    2,398;48379,045
 713,00; 8342,114;    3,319;48124,926
 714,00; 8265,524;    3,323;47788,560
 715,00; 8134,717;    2,670;47352,499
 716,00; 8384,383;    1,001;47327,557
 717,00; 8542,392;   -0,767;47075,032
 718,00; 8472,742;    4,123;46231,429
 719,00; 8080,619;    4,611;46379,970
 720,00; 8049,261;    5,204;45934,552
 721,00; 7932,514;    5,484;46184,420
 722,00; 7626,837;   -1,745;45333,735
 723,00; 8015,744;   -4,147;45312,754
 724,00; 8011,888;    1,669;45384,225
 725,00; 7842,855;    3,052;45169,462
 726,00; 7657,229;   -1,233;45215,307
 727,00; 7756,656;    4,459;45402,216
 728,00; 7305,189;    3,743;45198,493
 729,00; 7413,422;   -0,075;45036,927
 730,00; 7461,468;    2,884;45281,836
 731,00; 7125,006;    2,623;45243,883
 732,00; 7487,426;    9,943;45542,623
 733,00; 7465,704;   -1,006;45407,017
 734,00; 7200,707;   -3,252;45594,318
 735,00; 7187,961;   -1,722;45662,838
 736,00; 8021,850;    6,782;45648,534
 737,00; 7275,971;    7,536;45893,661
 738,00; 7426,473;    8,522;45643,223
 739,00; 7746,416;    7,767;45171,118
 740,00; 7385,362;    2,215;45144,134
 741,00; 7017,859;    3,690;45207,829
 742,00; 7743,331;    4,659;45004,046
 743,00; 7447,897;    5,013;44853,548
 744,00; 7285,695;    1,821;44322,740
 745,00; 7186,283;    7,429;44563,896
 746,00; 7027,401;    1,159;44189,251
 747,00; 7254,865;    8,505;43951,240
 748,00; 7185,479;    7,888;43273,005
 749,00; 7352,048;    2,018;43377,164
 750,00; 7299,056;    3,416;43159,180
 751,00; 7045,746;    4,206;42515,226
 752,00; 7190,770;    5,343;42079,535
 753,00; 6751,497;    5,282;41340,851
 754,00; 6547,393;    2,805;41319,095
 755,00; 6530,445;    3,716;40276,796
 756,00; 6714,441;    6,277;40243,016
 757,00; 6066,376;    3,754;39576,232
 758,00; 6305,870;    7,402;39704,427
 759,00; 6128,258;    7,962;39000,068
 760,00; 6513,311;    0,977;38547,462
 761,00; 6155,885;    4,183;38153,991
 762,00; 6244,108;    3,050;37786,002
 763,00; 5996,790;    5,642;37426,534
 764,00; 6128,445;    1,250;37181,135
 765,00; 6067,972;   -0,754;37171,447
 766,00; 5928,007;    5,452;36472,322
 767,00; 5963,003;    4,444;36253,979
 768,00; 5810,280;    1,429;36376,863
 769,00; 5814,143;   -1,182;36175,867
 770,00; 5592,373;   -1,209;35848,783
 771,00; 5937,058;   10,193;36034,098
 772,00; 5808,981;    1,801;35733,893
 773,00; 5890,198;    6,087;35890,631
 774,00; 5799,351;    5,606;35598,640
 775,00; 5412,384;    1,026;35517,664
 776,00; 5513,944;    6,113;35840,170
 777,00; 5148,175;    3,884;35458,882
 778,00; 5686,402;    1,515;35524,560
 779,00; 5793,343;    0,783;35476,436
 780,00; 5492,312;    4,404;35814,053
 781,00; 5479,942;    3,630;35835,393
 782,00; 5535,820;   -0,328;36141,052
 783,00; 5130,439;    0,491;36275,895
 784,00; 5647,114;    7,288;36455,008
 785,00; 5273,288;    1,558;36454,477
 786,00; 5273,108;    4,119;36609,201
 787,00; 5506,867;    3,715;36901,355
 788,00; 5832,793;    4,785;36724,684
 789,00; 5302,377;    1,940;36884,133
 790,00; 5252,216;    2,064;36639,539
 791,00; 5411,561;    5,108;37085,536
 792,00; 5524,840;    6,224;36549,884
 793,00; 5423,285;    6,098;36684,174
 794,00; 5579,807;    5,712;36363,303
 795,00; 5544,742;   -0,945;36473,159
 796,00; 5717,630;    0,387;36404,456
 797,00; 5501,555;    2,339;36042,595
 798,00; 5575,890;   -3,596;35780,798
 799,00; 5856,253;    4,808;35420,531
 800,00; 5499,259;    4,171;35284,582
 801,00; 5252,500;    5,810;34440,825
 802,00; 5234,983;   -2,867;34443,663
 803,00; 5415,871;    2,139;34307,753
 804,00; 5131,945;    2,001;34113,270
 805,00; 5088,608;    2,988;33636,256
 806,00; 5000,235;   -0,298;33060,784
 807,00; 4983,360;   -0,155;33033,672
 808,00; 5118,325;    4,308;32711,975
 809,00; 4970,836;    8,518;32425,260
 810,00; 5020,151;    3,259;32035,332
 811,00; 4948,262;    1,769;32125,824
 812,00; 5012,885;    1,863;31797,090
 813,00; 4940,296;    1,186;31540,208
 814,00; 5062,838;    5,133;31671,525
 815,00; 5064,237;    3,829;31296,928
 816,00; 4788,971;    3,106;31108,752
 817,00; 4860,513;    2,016;30605,363
 818,00; 4847,132;    4,338;30997,159
 819,00; 4770,784;    3,089;30405,419
 820,00; 4860,143;    7,159;30148,499
 821,00; 4894,011;    2,660;30164,743
 822,00; 4596,385;    0,408;29768,480
 823,00; 4543,637;    6,590;29524,454
 824,00; 4566,905;   -2,013;29316,800
 825,00; 4542,311;    7,821;29135,353
 826,00; 4583,091;    4,077;28735,114
 827,00; 4488,773;    6,341;28999,641
 828,00; 4353,477;    3,056;28742,113
 829,00; 4409,259;    0,872;28675,432
 830,00; 4496,015;    2,746;28333,158
 831,00; 4234,808;    2,474;28399,951
 832,00; 4386,219;    0,378;28376,515
 833,00; 4296,268;    8,963;28079,363
 834,00; 4276,169;    0,427;28282,931
 835,00; 4348,595;    3,908;28028,234
 836,00; 4162,148;    0,164;28263,872
 837,00; 4232,965;    4,288;27715,610
 838,00; 4076,851;    5,189;27993,888
 839,00; 4147,627;    2,788;27779,555
 840,00; 4209,511;    5,828;27701,236
 841,00; 4149,348;    1,944;27736,924
 842,00; 4310,761;    1,551;27678,304
 843,00; 4241,347;    2,396;27753,145
 844,00; 3950,247;    2,294;27398,003
 845,00; 3933,730;    2,821;27621,076
 846,00; 3906,348;    3,304;27366,872
 847,00; 4032,418;    1,994;27096,838
 848,00; 4104,593;    5,303;27264,237
 849,00; 4020,429;    3,693;26825,401
 850,00; 3908,815;    3,226;26883,147
 851,00; 3932,519;   -0,704;26469,412
 852,00; 3983,670;    0,601;26592,544
 853,00; 3743,279;    4,262;26031,020
 854,00; 3963,392;   -0,040;26191,045
 855,00; 3656,014;    2,968;25751,538
 856,00; 3723,696;    3,760;25443,997
 857,00; 3628,298;    1,498;25275,101
 858,00; 3751,153;    1,043;24925,711
 859,00; 3785,656;   -1,107;24959,569
 860,00; 3463,687;    9,451;24400,622
 861,00; 3647,131;    5,719;24441,330
 862,00; 3372,987;    0,653;23886,421
 863,00; 3387,942;    2,847;23555,331
 864,00; 3472,277;   -0,398;23319,195
 865,00; 3184,880;    3,187;22848,051
 866,00; 3242,266;    4,585;22877,885
 867,00; 3173,961;    0,949;22519,785
 868,00; 3348,961;   -4,376;22195,715
 869,00; 3364,024;    0,732;21534,061
 870,00; 2992,084;   -2,655;21645,564
 871,00; 3033,389;    5,622;21223,098
 872,00; 3155,463;    3,223;20818,920
 873,00; 3233,812;    4,779;20710,818
 874,00; 3081,492;   -0,088;20160,841
 875,00; 2952,061;    3,700;20174,218
 876,00; 2939,918;    1,890;19757,687
 877,00; 2919,176;    4,817;19629,732
 878,00; 2982,102;    9,605;19354,176
 879,00; 2944,822;    2,998;19113,723
 880,00; 2909,344;   -1,484;18811,927
 881,00; 2799,033;   56,385;18802,218
 882,00; 2878,721;   -2,872;18731,867
 883,00; 2688,007;    0,959;18789,016
 884,00; 2704,227;    9,259;18731,407
 885,00; 2729,036;    5,312;18705,487
 886,00; 2700,267;    2,379;18851,221
 887,00; 2755,830;   -0,006;19028,694
 888,00; 2667,385;    6,616;19049,508
 889,00; 2885,065;   -2,783;19456,452
 890,00; 2985,357;    2,266;19130,202
 891,00; 2937,834;    4,306;19317,597
 892,00; 2755,768;    7,445;19339,873
 893,00; 2694,891;    2,059;19376,474
 894,00; 2971,261;    7,355;19579,345
 895,00; 2844,010;    3,550;19578,151
 896,00; 2852,392;    0,691;19794,546
 897,00; 2879,596;    1,859;19521,503
 898,00; 2916,882;    0,633;19497,863
 899,00; 2895,148;    1,597;19606,431
 900,00; 2760,777;    4,871;19487,794
 901,00; 2801,979;    0,429;19487,021
 902,00; 2760,813;    1,193;19482,143
 903,00; 2840,281;    5,184;19496,932
 904,00; 2740,839;    4,196;19361,232
 905,00; 2693,141;    3,040;19177,774
 906,00; 2652,985;    2,088;19183,469
 907,00; 2572,968;    0,821;18880,744
 908,00; 2776,044;    2,884;18753,880
 909,00; 2699,534;    3,956;18443,324
 910,00; 2467,803;    4,127;18496,056
 911,00; 2466,926;    0,490;18159,364
 912,00; 2487,711;    3,369;18072,057
 913,00; 2525,986;   -1,364;17948,099
 914,00; 2648,453;    3,961;17512,267
 915,00; 2493,478;    0,781;17686,300
 916,00; 2471,031;    1,643;17283,177
 917,00; 2617,497;    4,271;17033,662
 918,00; 2515,593;    0,666;16796,326
 919,00; 2244,602;    2,611;16545,951
 920,00; 2472,073;    5,666;16356,050
 921,00; 2381,350;    5,856;16109,987
 922,00; 2295,865;    8,668;15895,350
 923,00; 2339,826;    2,391;15548,135
 924,00; 2466,736;    3,682;15312,339
 925,00; 2343,635;    3,474;14994,079
 926,00; 2185,172;    3,483;14609,696
 927,00; 2218,297;    4,173;14447,626
 928,00; 2123,860;    4,918;13910,609
 929,00; 2121,595;    3,297;13868,985
 930,00; 2053,402;    5,804;13383,963
 931,00; 2043,907;    1,265;13092,079
 932,00; 2063,118;   -2,047;12825,786
 933,00; 1827,933;    0,686;12357,902
 934,00; 2062,376;    3,707;12086,283
 935,00; 2047,596;   -0,258;11287,042
 936,00; 1956,675;    0,000;10652,333
 937,00; 1930,725;    0,621; 9968,240
 938,00; 1968,428;    3,722; 9160,350
 939,00; 1886,836;   -1,002; 8456,071
 940,00; 2091,787;    6,402; 7698,365
 941,00; 1689,041;    1,931; 7372,742
 942,00; 1744,321;    4,238; 7012,068
 943,00; 1764,131;    3,338; 6750,658
 944,00; 1738,081;    6,158; 6704,312
 945,00; 1722,981;    3,383; 6645,972
 946,00; 1629,613;    1,673; 6750,353
 947,00; 1557,709;    2,045; 6684,124
 948,00; 1644,474;    3,077; 6859,087
 949,00; 1607,389;   -0,724; 6905,299
 950,00; 1480,627;    4,303; 6970,891
 951,00; 1463,053;    3,734; 7242,058
 952,00; 1382,729;    1,565; 7155,168
 953,00; 1474,038;    1,470; 7528,332
 954,00; 1467,405;    3,194; 7534,413
 955,00; 1472,981;    4,253; 7624,742
 956,00; 1456,676;   -3,211; 7670,394
 957,00; 1472,452;    6,497; 7760,754
 958,00; 1400,455;    2,368; 7982,426
 959,00; 1303,554;   -0,842; 7792,457
 960,00; 1314,657;    1,568; 7892,791
 961,00; 1411,079;    3,466; 7960,323
 962,00; 1270,510;    3,733; 8009,871
 963,00; 1323,888;   -1,271; 8056,483
 964,00; 1268,717;    2,504; 7940,252
 965,00; 1248,901;    0,979; 8034,092
 966,00; 1244,737;    5,138; 7920,691
 967,00; 1133,541;    4,504; 7920,096
 968,00; 1234,035;    1,336; 7911,080
 969,00; 1267,166;    3,643; 7810,097
 970,00; 1184,696;    4,112; 7812,516
 971,00; 1159,908;    0,975; 7822,167
 972,00; 1217,985;    2,244; 7703,449
 973,00; 1156,155;    3,829; 7741,144
 974,00; 1122,824;    3,528; 7606,739
 975,00; 1147,957;    9,840; 7616,591
 976,00; 1067,136;    3,540; 7491,415
 977,00; 1101,899;    1,158; 7433,090
 978,00; 1093,313;    3,851; 7390,934
 979,00;  990,509;    5,284; 7234,839
 980,00; 1094,984;    3,377; 7221,538
 981,00;  964,766;    4,103; 7101,498
 982,00;  967,988;    5,376; 7030,563
 983,00;  963,866;    0,185; 6964,459
 984,00;  968,517;    1,903; 6791,681
 985,00; 1035,527;   -0,735; 6884,786
 986,00;  904,495;    3,984; 6535,673
 987,00;  987,462;    4,619; 6531,601
 988,00;  927,869;    7,786; 6458,635
 989,00;  909,340;    3,408; 6330,281
 990,00;  920,830;    7,383; 6200,638
 991,00;  842,411;    3,803; 6044,263
 992,00;  873,365;    4,066; 5979,043
 993,00;  835,084;    2,968; 5879,213
 994,00;  771,467;    2,697; 5837,352
 995,00;  814,142;    4,746; 5672,640
 996,00;  727,182;    4,696; 5479,321
 997,00;  721,212;    4,116; 5421,606
 998,00;  721,783;    2,840; 5304,811
 999,00;  685,617;   -2,846; 5076,878
1000,00;  712,564;   -0,401; 5073,507
1001,00;  727,368;    2,413; 4934,566
1002,00;  658,188;    2,721; 4771,740
1003,00;  657,301;    3,193; 4659,475
1004,00;  642,123;    3,318; 4567,170
1005,00;  575,728;    2,971; 4448,672
1006,00;  588,174;    6,215; 4290,081
1007,00;  594,581;    3,138; 4197,557
1008,00;  592,058;    2,955; 4092,298
1009,00;  549,051;    5,693; 3950,825
1010,00;  525,216;    3,239; 3976,646
1011,00;  528,356;    4,341; 3852,594
1012,00;  548,350;    4,219; 3822,411
1013,00;  538,906;    3,989; 3796,641
1014,00;  529,231;    1,826; 3774,270
1015,00;  524,689;    5,844; 3813,325
1016,00;  592,361;    6,027; 3750,420
1017,00;  561,268;    2,137; 3730,661
1018,00;  579,078;    0,792; 3654,573
1019,00;  533,569;    0,720; 3574,519
1020,00;  512,183;    6,298; 3499,290
1021,00;  474,272;    7,873; 3310,743
1022,00;  490,607;    4,791; 3253,565
1023,00;  511,203;    2,559; 3145,936
1024,00;  480,051;    1,850; 3073,108
1025,00;  456,022;    0,314; 2982,295
1026,00;  415,844;    0,408; 2842,767
1027,00;  435,041;    3,243; 2770,938
1028,00;  408,133;    3,014; 2630,616
1029,00;  380,922;    4,191; 2552,565
1030,00;  344,197;    3,906; 2458,928
1031,00;  340,244;    2,348; 2376,469
1032,00;  361,270;   -0,189; 2339,266
1033,00;  332,993;    1,268; 2230,116
1034,00;  272,245;    9,510; 2165,551
1035,00;  316,990;    1,348; 2093,223
1036,00;  340,421;    3,156; 2021,790
1037,00;  292,274;    1,820; 1948,954
1038,00;  269,005;    3,195; 1904,856
1039,00;  281,027;    0,630; 1843,503
1040,00;  271,320;    0,761; 1762,364
1041,00;  237,605;    2,140; 1731,450
1042,00;  246,278;    4,696; 1670,515
1043,00;  235,940;    3,250; 1609,635
1044,00;  244,798;    6,727; 1568,765
1045,00;  248,981;    5,127; 1523,020
1046,00;  214,780;    6,818; 1478,453
1047,00;  224,542;    1,683; 1429,356
1048,00;  234,643;    5,404; 1394,443
1049,00;  204,472;    4,401; 1342,936
1050,00;  183,191;    2,565; 1315,683
1051,00;  164,839;    2,439; 1277,001
1052,00;  180,300;    4,119; 1231,814
1053,00;  178,626;    5,556; 1222,191
1054,00;  185,956;    4,484; 1197,243
1055,00;  165,026;   -7,048; 1156,731
1056,00;  153,440;   23,212; 1136,129
1057,00;  159,782;    1,466; 1075,188
1058,00;  147,374;    1,519; 1064,890
1059,00;  150,402;   -1,981; 1025,328
1060,00;  153,283;    4,271;  991,931
1061,00;  144,318;    4,827;  969,708
1062,00;  147,284;    5,977;  948,920
1063,00;  133,506;    5,065;  912,247
1064,00;  126,789;    6,614;  896,884
1065,00;  122,559;    2,581;  859,071
1066,00;  114,424;    3,721;  850,201
1067,00;  114,963;    1,855;  833,671
1068,00;  117,513;    4,291;  803,982
1069,00;  106,074;    0,971;  800,529
1070,00;  108,390;   -6,648;  781,254
1071,00;  116,626;    0,465;  784,165
1072,00;  111,092;    1,958;  755,231
1073,00;  100,519;   -1,788;  743,175
1074,00;   95,319;    9,582;  722,567
1075,00;  104,322;    4,458;  707,139
1076,00;   90,840;    5,820;  694,732
1077,00;   97,846;   -1,830;  672,129
1078,00;   99,300;    7,273;  667,702
1079,00;  102,165;    9,890;  658,769
1080,00;  100,931;    0,934;  642,278
1081,00;   97,900;    3,234;  627,163
1082,00;   92,517;    5,023;  601,046
1083,00;   86,334;    1,785;  571,290
1084,00;   81,013;    0,679;  605,954
1085,00;   82,967;    3,167;  585,327
1086,00;   72,376;    2,699;  555,308
1087,00;   76,689;    3,714;  557,223
1088,00;   65,679;    5,041;  527,679
1089,00;   82,778;    1,571;  504,374
1090,00;   77,908;    1,848;  495,711
1091,00;   66,288;   -2,199;  496,580
1092,00;   69,719;    8,707;  484,457
1093,00;   67,563;    4,808;  462,186
1094,00;   64,731;    2,264;  452,215
1095,00;   70,989;    3,360;  435,345
1096,00;   65,908;    3,219;  424,386
1097,00;   57,660;    3,403;  414,662
1098,00;   55,777;    0,315;  403,777
1099,00;   Not Available
1100,00;   Not Available

